WordItem,WordColor,thisN,thisTrialN,thisRepN,key_resp_2.keys,key_resp_2.rt,key_resp_2.duration,trials.thisRepN,trials.thisTrialN,trials.thisN,trials.thisIndex,trials_2.thisRepN,trials_2.thisTrialN,trials_2.thisN,trials_2.thisIndex,thisRow.t,notes,Welcome_screen.started,Welcome.started,keyWelcome.started,Welcome_screen.stopped,keyWelcome.keys,keyWelcome.rt,keyWelcome.duration,Instructions.started,textInstructions.started,keyInstructions.started,Instructions.stopped,keyInstructions.keys,keyInstructions.rt,keyInstructions.duration,Study_trail.started,textStudytrail.started,textStudytrail.stopped,Study_trail.stopped,Blank_Screen.started,textBlank.started,textBlank.stopped,Blank_Screen.stopped,Wait_Screen.started,textWaitScreen.started,keyWaitScreen.started,Wait_Screen.stopped,keyWaitScreen.keys,keyWaitScreen.rt,keyWaitScreen.duration,Y_N_Screen.started,text.started,key_resp.started,Y_N_Screen.stopped,key_resp.keys,key_resp.rt,key_resp.duration,StudyTrails.started,text_2.started,key_resp_2.started,StudyTrails.stopped,trials_2.key_resp_2.keys,trials_2.key_resp_2.rt,trials_2.key_resp_2.duration,participant,session,date,expName,psychopyVersion,frameRate,expStart
,,,,,,,,,,,,,,,,,,0.0038467,0.0203576,0.0203576,3.3072448,space,3.2748491,None,,,,,,,,,,,,,,,,,,,,,,,,,,,,,,,,,,,,,aaditya,1,2024-12-06_12h14.40.121,Solo project,2024.2.4,61.03053724,2024-12-06 12h14.56.230798 +0530
,,,,,,,,,,,,,,,,,,,,,,,,,3.3072938,3.3188576,3.3188576,3.6537632,space,0.3265994,None,,,,,,,,,,,,,,,,,,,,,,,,,,,,,,aaditya,1,2024-12-06_12h14.40.121,Solo project,2024.2.4,61.03053724,2024-12-06 12h14.56.230798 +0530
depression,blue,0,0,0,,,,0,0,0,1,,,,,3.668682,,,,,,,,,,,,,,,,3.6624033,3.668682,5.6679995,5.6518526,5.6518933,5.6679995,6.1681073,6.1525667,,,,,,,,,,,,,,,,,,,,,,aaditya,1,2024-12-06_12h14.40.121,Solo project,2024.2.4,61.03053724,2024-12-06 12h14.56.230798 +0530
excited ,yellow,1,1,0,,,,0,1,1,3,,,,,6.1681073,,,,,,,,,,,,,,,,6.1551842,6.1681073,8.1675662,8.1522896,8.1523443,8.1675662,8.667296,8.6505772,,,,,,,,,,,,,,,,,,,,,,aaditya,1,2024-12-06_12h14.40.121,Solo project,2024.2.4,61.03053724,2024-12-06 12h14.56.230798 +0530
joyous,yellow,2,2,0,,,,0,2,2,4,,,,,8.667296,,,,,,,,,,,,,,,,8.6547682,8.667296,,10.6666103,10.6666717,10.6826725,,11.1661035,,,,,,,,,,,,,,,,,,,,,,aaditya,1,2024-12-06_12h14.40.121,Solo project,2024.2.4,61.03053724,2024-12-06 12h14.56.230798 +0530
anxiety,blue,3,3,0,,,,0,3,3,0,,,,,11.1827234,,,,,,,,,,,,,,,,11.1688819,11.1827234,,13.1651776,13.1652228,13.1815414,,13.6649489,,,,,,,,,,,,,,,,,,,,,,aaditya,1,2024-12-06_12h14.40.121,Solo project,2024.2.4,61.03053724,2024-12-06 12h14.56.230798 +0530
vexed,blue,4,4,0,,,,0,4,4,2,,,,,13.6812772,,,,,,,,,,,,,,,,13.6683895,13.6812772,,15.6641664,15.6642116,15.6802337,,16.1640032,,,,,,,,,,,,,,,,,,,,,,aaditya,1,2024-12-06_12h14.40.121,Solo project,2024.2.4,61.03053724,2024-12-06 12h14.56.230798 +0530
content,yellow,5,5,0,,,,0,5,5,5,,,,,16.1804035,,,,,,,,,,,,,,,,16.1666299,16.1804035,,18.1628247,18.1628636,18.1800935,,18.6626928,,,,,,,,,,,,,,,,,,,,,,aaditya,1,2024-12-06_12h14.40.121,Solo project,2024.2.4,61.03053724,2024-12-06 12h14.56.230798 +0530
depression,blue,6,0,1,,,,1,0,6,1,,,,,18.6795262,,,,,,,,,,,,,,,,18.6657127,18.6795262,,20.6624164,20.6624665,20.6788447,,21.1620567,,,,,,,,,,,,,,,,,,,,,,aaditya,1,2024-12-06_12h14.40.121,Solo project,2024.2.4,61.03053724,2024-12-06 12h14.56.230798 +0530
excited ,yellow,7,1,1,,,,1,1,7,3,,,,,21.1782245,,,,,,,,,,,,,,,,21.1647168,21.1782245,,23.1608372,23.1608792,23.1771773,,23.6609529,,,,,,,,,,,,,,,,,,,,,,aaditya,1,2024-12-06_12h14.40.121,Solo project,2024.2.4,61.03053724,2024-12-06 12h14.56.230798 +0530
anxiety,blue,8,2,1,,,,1,2,8,0,,,,,23.6771082,,,,,,,,,,,,,,,,23.6638366,23.6771082,,25.6605608,25.6606158,25.6763412,,26.1600418,,,,,,,,,,,,,,,,,,,,,,aaditya,1,2024-12-06_12h14.40.121,Solo project,2024.2.4,61.03053724,2024-12-06 12h14.56.230798 +0530
vexed,blue,9,3,1,,,,1,3,9,2,,,,,26.1759154,,,,,,,,,,,,,,,,26.162793,26.1759154,,28.1586639,28.1587314,28.1752323,,28.6585093,,,,,,,,,,,,,,,,,,,,,,aaditya,1,2024-12-06_12h14.40.121,Solo project,2024.2.4,61.03053724,2024-12-06 12h14.56.230798 +0530
joyous,yellow,10,4,1,,,,1,4,10,4,,,,,28.6748126,,,,,,,,,,,,,,,,28.6610856,28.6748126,,30.6578281,30.6578804,30.6744458,,31.157449,,,,,,,,,,,,,,,,,,,,,,aaditya,1,2024-12-06_12h14.40.121,Solo project,2024.2.4,61.03053724,2024-12-06 12h14.56.230798 +0530
content,yellow,11,5,1,,,,1,5,11,5,,,,,31.1743874,,,,,,,,,,,,,,,,31.1598189,31.1743874,,33.1566125,33.1566807,33.1734378,,33.6562299,,,,,,,,,,,,,,,,,,,,,,aaditya,1,2024-12-06_12h14.40.121,Solo project,2024.2.4,61.03053724,2024-12-06 12h14.56.230798 +0530
excited ,yellow,12,0,2,,,,2,0,12,3,,,,,33.6728926,,,,,,,,,,,,,,,,33.6591744,33.6728926,,35.6554192,35.6554599,35.6724297,,36.1552022,,,,,,,,,,,,,,,,,,,,,,aaditya,1,2024-12-06_12h14.40.121,Solo project,2024.2.4,61.03053724,2024-12-06 12h14.56.230798 +0530
depression,blue,13,1,2,,,,2,1,13,1,,,,,36.171805,,,,,,,,,,,,,,,,36.1580855,36.171805,,38.1549017,38.154947,38.1710701,,38.6544626,,,,,,,,,,,,,,,,,,,,,,aaditya,1,2024-12-06_12h14.40.121,Solo project,2024.2.4,61.03053724,2024-12-06 12h14.56.230798 +0530
joyous,yellow,14,2,2,,,,2,2,14,4,,,,,38.6707617,,,,,,,,,,,,,,,,38.6570255,38.6707617,40.6696051,40.6539516,40.65401,40.6696051,41.1696738,41.154003,,,,,,,,,,,,,,,,,,,,,,aaditya,1,2024-12-06_12h14.40.121,Solo project,2024.2.4,61.03053724,2024-12-06 12h14.56.230798 +0530
content,yellow,15,3,2,,,,2,3,15,5,,,,,41.1696738,,,,,,,,,,,,,,,,41.1564701,41.1696738,43.1689786,43.1528245,43.1528675,43.1689786,43.6683333,43.6522343,,,,,,,,,,,,,,,,,,,,,,aaditya,1,2024-12-06_12h14.40.121,Solo project,2024.2.4,61.03053724,2024-12-06 12h14.56.230798 +0530
anxiety,blue,16,4,2,,,,2,4,16,0,,,,,43.6683333,,,,,,,,,,,,,,,,43.6547833,43.6683333,45.6673254,45.6516004,45.6516453,45.6673254,46.1671686,46.151529,,,,,,,,,,,,,,,,,,,,,,aaditya,1,2024-12-06_12h14.40.121,Solo project,2024.2.4,61.03053724,2024-12-06 12h14.56.230798 +0530
vexed,blue,17,5,2,,,,2,5,17,2,,,,,46.1671686,,,,,,,,,,,,,,,,46.1540007,46.1671686,,48.1660953,48.1661311,48.1828369,,48.6662247,,,,,,,,,,,,,,,,,,,,,,aaditya,1,2024-12-06_12h14.40.121,Solo project,2024.2.4,61.03053724,2024-12-06 12h14.56.230798 +0530
depression,blue,18,0,3,,,,3,0,18,1,,,,,48.6825628,,,,,,,,,,,,,,,,48.6696753,48.6825628,,50.6663497,50.6663972,50.6824646,,51.1655197,,,,,,,,,,,,,,,,,,,,,,aaditya,1,2024-12-06_12h14.40.121,Solo project,2024.2.4,61.03053724,2024-12-06 12h14.56.230798 +0530
content,yellow,19,1,3,,,,3,1,19,5,,,,,51.181821,,,,,,,,,,,,,,,,51.1678894,51.181821,,53.1647243,53.1647701,53.1809309,,53.6642831,,,,,,,,,,,,,,,,,,,,,,aaditya,1,2024-12-06_12h14.40.121,Solo project,2024.2.4,61.03053724,2024-12-06 12h14.56.230798 +0530
excited ,yellow,20,2,3,,,,3,2,20,3,,,,,53.6809357,,,,,,,,,,,,,,,,53.6670352,53.6809357,,55.6639939,55.6640466,55.6799423,,56.1640722,,,,,,,,,,,,,,,,,,,,,,aaditya,1,2024-12-06_12h14.40.121,Solo project,2024.2.4,61.03053724,2024-12-06 12h14.56.230798 +0530
vexed,blue,21,3,3,,,,3,3,21,2,,,,,56.1797904,,,,,,,,,,,,,,,,56.1670053,56.1797904,,58.1631832,58.1632418,58.1794676,,58.6617429,,,,,,,,,,,,,,,,,,,,,,aaditya,1,2024-12-06_12h14.40.121,Solo project,2024.2.4,61.03053724,2024-12-06 12h14.56.230798 +0530
joyous,yellow,22,4,3,,,,3,4,22,4,,,,,58.6784111,,,,,,,,,,,,,,,,58.6643344,58.6784111,,60.6610853,60.6611248,60.6774763,,61.1610214,,,,,,,,,,,,,,,,,,,,,,aaditya,1,2024-12-06_12h14.40.121,Solo project,2024.2.4,61.03053724,2024-12-06 12h14.56.230798 +0530
anxiety,blue,23,5,3,,,,3,5,23,0,,,,,61.1774987,,,,,,,,,,,,,,,,61.163605,61.1774987,,63.1607251,63.1608257,63.1772332,,63.6601136,,,,,,,,,,,,,,,,,,,,,,aaditya,1,2024-12-06_12h14.40.121,Solo project,2024.2.4,61.03053724,2024-12-06 12h14.56.230798 +0530
vexed,blue,24,0,4,,,,4,0,24,2,,,,,63.6766681,,,,,,,,,,,,,,,,63.6634619,63.6766681,,65.6593565,65.6594026,65.6755514,,66.1592537,,,,,,,,,,,,,,,,,,,,,,aaditya,1,2024-12-06_12h14.40.121,Solo project,2024.2.4,61.03053724,2024-12-06 12h14.56.230798 +0530
joyous,yellow,25,1,4,,,,4,1,25,4,,,,,66.1755698,,,,,,,,,,,,,,,,66.1618387,66.1755698,,68.1581542,68.1581946,68.1745973,,68.6579984,,,,,,,,,,,,,,,,,,,,,,aaditya,1,2024-12-06_12h14.40.121,Solo project,2024.2.4,61.03053724,2024-12-06 12h14.56.230798 +0530
content,yellow,26,2,4,,,,4,2,26,5,,,,,68.6745538,,,,,,,,,,,,,,,,68.6603704,68.6745538,,70.6575792,70.6576292,70.6737211,,71.1568361,,,,,,,,,,,,,,,,,,,,,,aaditya,1,2024-12-06_12h14.40.121,Solo project,2024.2.4,61.03053724,2024-12-06 12h14.56.230798 +0530
depression,blue,27,3,4,,,,4,3,27,1,,,,,71.1730386,,,,,,,,,,,,,,,,71.1596281,71.1730386,,73.1558715,73.1559141,73.1726791,,73.6556556,,,,,,,,,,,,,,,,,,,,,,aaditya,1,2024-12-06_12h14.40.121,Solo project,2024.2.4,61.03053724,2024-12-06 12h14.56.230798 +0530
anxiety,blue,28,4,4,,,,4,4,28,0,,,,,73.6722284,,,,,,,,,,,,,,,,73.658223,73.6722284,,75.6543757,75.6544339,75.6713967,,76.1542931,,,,,,,,,,,,,,,,,,,,,,aaditya,1,2024-12-06_12h14.40.121,Solo project,2024.2.4,61.03053724,2024-12-06 12h14.56.230798 +0530
excited ,yellow,29,5,4,,,,4,5,29,3,,,,,76.1710303,,,,,,,,,,,,,,,,76.1568764,76.1710303,,78.1538573,78.1538975,78.1708516,,78.6698258,,,,,,,,,,,,,,,,,,,,,,aaditya,1,2024-12-06_12h14.40.121,Solo project,2024.2.4,61.03053724,2024-12-06 12h14.56.230798 +0530
,,,,,,,,,,,,,,,,,,,,,,,,,,,,,,,,,,,,,,,,78.6699822,78.6870278,78.6870278,100.7120542,space,22.0176,None,,,,,,,,,,,,,,,aaditya,1,2024-12-06_12h14.40.121,Solo project,2024.2.4,61.03053724,2024-12-06 12h14.56.230798 +0530
,,,,,,,,,,,,,,,,,,,,,,,,,,,,,,,,,,,,,,,,,,,,,,,100.7121085,100.7271336,100.7271336,103.9430757,space,3.210843,None,,,,,,,,aaditya,1,2024-12-06_12h14.40.121,Solo project,2024.2.4,61.03053724,2024-12-06 12h14.56.230798 +0530
depression,blue,0,0,0,y,1.6896557,None,,,,,0,0,0,1,103.9588204,,,,,,,,,,,,,,,,,,,,,,,,,,,,,,,,,,,,,,103.9498742,103.9588204,103.9588204,105.6596384,y,1.6896557,None,aaditya,1,2024-12-06_12h14.40.121,Solo project,2024.2.4,61.03053724,2024-12-06 12h14.56.230798 +0530
ashamed,None,1,1,0,n,1.5249727,None,,,,,0,1,1,8,105.6748991,,,,,,,,,,,,,,,,,,,,,,,,,,,,,,,,,,,,,,105.662028,105.6748991,105.6748991,107.2089809,n,1.5249727,None,aaditya,1,2024-12-06_12h14.40.121,Solo project,2024.2.4,61.03053724,2024-12-06 12h14.56.230798 +0530
calm,None,2,2,0,y,0.7891369,None,,,,,0,2,2,10,107.2238488,,,,,,,,,,,,,,,,,,,,,,,,,,,,,,,,,,,,,,107.2110959,107.2238488,107.2238488,108.0248319,y,0.7891369,None,aaditya,1,2024-12-06_12h14.40.121,Solo project,2024.2.4,61.03053724,2024-12-06 12h14.56.230798 +0530
aggravated,None,3,3,0,n,1.0599927,None,,,,,0,3,3,9,108.0408881,,,,,,,,,,,,,,,,,,,,,,,,,,,,,,,,,,,,,,108.0280564,108.0408881,108.0408881,109.1084355,n,1.0599927,None,aaditya,1,2024-12-06_12h14.40.121,Solo project,2024.2.4,61.03053724,2024-12-06 12h14.56.230798 +0530
fascinated,None,4,4,0,n,0.7241425,None,,,,,0,4,4,7,109.1229583,,,,,,,,,,,,,,,,,,,,,,,,,,,,,,,,,,,,,,109.1110058,109.1229583,109.1229583,109.8578175,n,0.7241425,None,aaditya,1,2024-12-06_12h14.40.121,Solo project,2024.2.4,61.03053724,2024-12-06 12h14.56.230798 +0530
anxiety,blue,5,5,0,y,0.4254708,None,,,,,0,5,5,0,109.8728049,,,,,,,,,,,,,,,,,,,,,,,,,,,,,,,,,,,,,,109.8600301,109.8728049,109.8728049,110.3075704,y,0.4254708,None,aaditya,1,2024-12-06_12h14.40.121,Solo project,2024.2.4,61.03053724,2024-12-06 12h14.56.230798 +0530
joyous,yellow,6,6,0,y,0.5444953,None,,,,,0,6,6,4,110.3228538,,,,,,,,,,,,,,,,,,,,,,,,,,,,,,,,,,,,,,110.3097425,110.3228538,110.3228538,110.8738201,y,0.5444953,None,aaditya,1,2024-12-06_12h14.40.121,Solo project,2024.2.4,61.03053724,2024-12-06 12h14.56.230798 +0530
content,yellow,7,7,0,n,0.5169062,None,,,,,0,7,7,5,110.8891036,,,,,,,,,,,,,,,,,,,,,,,,,,,,,,,,,,,,,,110.8759621,110.8891036,110.8891036,111.4074035,n,0.5169062,None,aaditya,1,2024-12-06_12h14.40.121,Solo project,2024.2.4,61.03053724,2024-12-06 12h14.56.230798 +0530
delighted,None,8,8,0,y,0.3533854,None,,,,,0,8,8,11,111.4224285,,,,,,,,,,,,,,,,,,,,,,,,,,,,,,,,,,,,,,111.4099192,111.4224285,111.4224285,111.7902301,y,0.3533854,None,aaditya,1,2024-12-06_12h14.40.121,Solo project,2024.2.4,61.03053724,2024-12-06 12h14.56.230798 +0530
jealous,None,9,9,0,y,0.4134316,None,,,,,0,9,9,6,111.806062,,,,,,,,,,,,,,,,,,,,,,,,,,,,,,,,,,,,,,111.7928076,111.806062,111.806062,112.222303,y,0.4134316,None,aaditya,1,2024-12-06_12h14.40.121,Solo project,2024.2.4,61.03053724,2024-12-06 12h14.56.230798 +0530
vexed,blue,10,10,0,n,0.3854345,None,,,,,0,10,10,2,112.2384069,,,,,,,,,,,,,,,,,,,,,,,,,,,,,,,,,,,,,,112.2244368,112.2384069,112.2384069,112.6398683,n,0.3854345,None,aaditya,1,2024-12-06_12h14.40.121,Solo project,2024.2.4,61.03053724,2024-12-06 12h14.56.230798 +0530
excited ,yellow,11,11,0,y,0.6490769,None,,,,,0,11,11,3,112.6549613,,,,,,,,,,,,,,,,,,,,,,,,,,,,,,,,,,,,,,112.6422012,112.6549613,112.6549613,113.3056424,y,0.6490769,None,aaditya,1,2024-12-06_12h14.40.121,Solo project,2024.2.4,61.03053724,2024-12-06 12h14.56.230798 +0530
vexed,blue,12,0,1,y,0.8887062,None,,,,,1,0,12,2,113.3214949,,,,,,,,,,,,,,,,,,,,,,,,,,,,,,,,,,,,,,113.3078115,113.3214949,113.3214949,114.2221089,y,0.8887062,None,aaditya,1,2024-12-06_12h14.40.121,Solo project,2024.2.4,61.03053724,2024-12-06 12h14.56.230798 +0530
delighted,None,13,1,1,y,0.8417254,None,,,,,1,1,13,11,114.2373083,,,,,,,,,,,,,,,,,,,,,,,,,,,,,,,,,,,,,,114.225244,114.2373083,114.2373083,115.0888106,y,0.8417254,None,aaditya,1,2024-12-06_12h14.40.121,Solo project,2024.2.4,61.03053724,2024-12-06 12h14.56.230798 +0530
fascinated,None,14,2,1,n,0.590898,None,,,,,1,2,14,7,115.104128,,,,,,,,,,,,,,,,,,,,,,,,,,,,,,,,,,,,,,115.0914828,115.104128,115.104128,115.7050866,n,0.590898,None,aaditya,1,2024-12-06_12h14.40.121,Solo project,2024.2.4,61.03053724,2024-12-06 12h14.56.230798 +0530
ashamed,None,15,3,1,y,0.6219664,None,,,,,1,3,15,8,115.7201023,,,,,,,,,,,,,,,,,,,,,,,,,,,,,,,,,,,,,,115.7078482,115.7201023,115.7201023,116.3547751,y,0.6219664,None,aaditya,1,2024-12-06_12h14.40.121,Solo project,2024.2.4,61.03053724,2024-12-06 12h14.56.230798 +0530
calm,None,16,4,1,n,0.8251825,None,,,,,1,4,16,10,116.3697386,,,,,,,,,,,,,,,,,,,,,,,,,,,,,,,,,,,,,,116.3568562,116.3697386,116.3697386,117.2047015,n,0.8251825,None,aaditya,1,2024-12-06_12h14.40.121,Solo project,2024.2.4,61.03053724,2024-12-06 12h14.56.230798 +0530
jealous,None,17,5,1,y,0.7029368,None,,,,,1,5,17,6,117.2202874,,,,,,,,,,,,,,,,,,,,,,,,,,,,,,,,,,,,,,117.2070155,117.2202874,117.2202874,117.9373785,y,0.7029368,None,aaditya,1,2024-12-06_12h14.40.121,Solo project,2024.2.4,61.03053724,2024-12-06 12h14.56.230798 +0530
anxiety,blue,18,6,1,y,0.6312436,None,,,,,1,6,18,0,117.9526109,,,,,,,,,,,,,,,,,,,,,,,,,,,,,,,,,,,,,,117.939602,117.9526109,117.9526109,118.5874764,y,0.6312436,None,aaditya,1,2024-12-06_12h14.40.121,Solo project,2024.2.4,61.03053724,2024-12-06 12h14.56.230798 +0530
joyous,yellow,19,7,1,y,0.6253235,None,,,,,1,7,19,4,118.6028323,,,,,,,,,,,,,,,,,,,,,,,,,,,,,,,,,,,,,,118.589688,118.6028323,118.6028323,119.2363487,y,0.6253235,None,aaditya,1,2024-12-06_12h14.40.121,Solo project,2024.2.4,61.03053724,2024-12-06 12h14.56.230798 +0530
depression,blue,20,8,1,y,0.8455525,None,,,,,1,8,20,1,119.2520107,,,,,,,,,,,,,,,,,,,,,,,,,,,,,,,,,,,,,,119.2387012,119.2520107,119.2520107,120.1035082,y,0.8455525,None,aaditya,1,2024-12-06_12h14.40.121,Solo project,2024.2.4,61.03053724,2024-12-06 12h14.56.230798 +0530
aggravated,None,21,9,1,n,0.5777328,None,,,,,1,9,21,9,120.1180924,,,,,,,,,,,,,,,,,,,,,,,,,,,,,,,,,,,,,,120.1062629,120.1180924,120.1180924,120.7031071,n,0.5777328,None,aaditya,1,2024-12-06_12h14.40.121,Solo project,2024.2.4,61.03053724,2024-12-06 12h14.56.230798 +0530
excited ,yellow,22,10,1,n,0.8174253,None,,,,,1,10,22,3,120.7181675,,,,,,,,,,,,,,,,,,,,,,,,,,,,,,,,,,,,,,120.705486,120.7181675,120.7181675,121.5524661,n,0.8174253,None,aaditya,1,2024-12-06_12h14.40.121,Solo project,2024.2.4,61.03053724,2024-12-06 12h14.56.230798 +0530
content,yellow,23,11,1,n,0.4395499,None,,,,,1,11,23,5,121.5676962,,,,,,,,,,,,,,,,,,,,,,,,,,,,,,,,,,,,,,121.5548178,121.5676962,121.5676962,122.0191812,n,0.4395499,None,aaditya,1,2024-12-06_12h14.40.121,Solo project,2024.2.4,61.03053724,2024-12-06 12h14.56.230798 +0530
anxiety,blue,24,0,2,y,0.4868314,None,,,,,2,0,24,0,122.0342918,,,,,,,,,,,,,,,,,,,,,,,,,,,,,,,,,,,,,,122.0214026,122.0342918,122.0342918,122.5354795,y,0.4868314,None,aaditya,1,2024-12-06_12h14.40.121,Solo project,2024.2.4,61.03053724,2024-12-06 12h14.56.230798 +0530
jealous,None,25,1,2,y,1.4198425,None,,,,,2,1,25,6,122.551084,,,,,,,,,,,,,,,,,,,,,,,,,,,,,,,,,,,,,,122.5378291,122.551084,122.551084,123.98493,y,1.4198425,None,aaditya,1,2024-12-06_12h14.40.121,Solo project,2024.2.4,61.03053724,2024-12-06 12h14.56.230798 +0530
excited ,yellow,26,2,2,n,0.8872095,None,,,,,2,2,26,3,124.0000249,,,,,,,,,,,,,,,,,,,,,,,,,,,,,,,,,,,,,,123.9872615,124.0000249,124.0000249,124.9006617,n,0.8872095,None,aaditya,1,2024-12-06_12h14.40.121,Solo project,2024.2.4,61.03053724,2024-12-06 12h14.56.230798 +0530
joyous,yellow,27,3,2,y,0.5599067,None,,,,,2,3,27,4,124.9169122,,,,,,,,,,,,,,,,,,,,,,,,,,,,,,,,,,,,,,124.9031337,124.9169122,124.9169122,125.4840744,y,0.5599067,None,aaditya,1,2024-12-06_12h14.40.121,Solo project,2024.2.4,61.03053724,2024-12-06 12h14.56.230798 +0530
vexed,blue,28,4,2,y,0.9374577,None,,,,,2,4,28,2,125.4997282,,,,,,,,,,,,,,,,,,,,,,,,,,,,,,,,,,,,,,125.4862211,125.4997282,125.4997282,126.4506867,y,0.9374577,None,aaditya,1,2024-12-06_12h14.40.121,Solo project,2024.2.4,61.03053724,2024-12-06 12h14.56.230798 +0530
delighted,None,29,5,2,y,0.6199172,None,,,,,2,5,29,11,126.465333,,,,,,,,,,,,,,,,,,,,,,,,,,,,,,,,,,,,,,126.4531003,126.465333,126.465333,127.1000798,y,0.6199172,None,aaditya,1,2024-12-06_12h14.40.121,Solo project,2024.2.4,61.03053724,2024-12-06 12h14.56.230798 +0530
depression,blue,30,6,2,y,0.6210228,None,,,,,2,6,30,1,127.115625,,,,,,,,,,,,,,,,,,,,,,,,,,,,,,,,,,,,,,127.1026632,127.115625,127.115625,127.7500739,y,0.6210228,None,aaditya,1,2024-12-06_12h14.40.121,Solo project,2024.2.4,61.03053724,2024-12-06 12h14.56.230798 +0530
calm,None,31,7,2,y,0.714872,None,,,,,2,7,31,10,127.7651561,,,,,,,,,,,,,,,,,,,,,,,,,,,,,,,,,,,,,,127.7520647,127.7651561,127.7651561,128.482437,y,0.714872,None,aaditya,1,2024-12-06_12h14.40.121,Solo project,2024.2.4,61.03053724,2024-12-06 12h14.56.230798 +0530
content,yellow,32,8,2,n,0.477381,None,,,,,2,8,32,5,128.4980875,,,,,,,,,,,,,,,,,,,,,,,,,,,,,,,,,,,,,,128.484503,128.4980875,128.4980875,128.982469,n,0.477381,None,aaditya,1,2024-12-06_12h14.40.121,Solo project,2024.2.4,61.03053724,2024-12-06 12h14.56.230798 +0530
fascinated,None,33,9,2,n,0.7662749,None,,,,,2,9,33,7,128.9976946,,,,,,,,,,,,,,,,,,,,,,,,,,,,,,,,,,,,,,128.985345,128.9976946,128.9976946,129.766108,n,0.7662749,None,aaditya,1,2024-12-06_12h14.40.121,Solo project,2024.2.4,61.03053724,2024-12-06 12h14.56.230798 +0530
ashamed,None,34,10,2,y,0.7186848,None,,,,,2,10,34,8,129.7808057,,,,,,,,,,,,,,,,,,,,,,,,,,,,,,,,,,,,,,129.7684533,129.7808057,129.7808057,130.5156916,y,0.7186848,None,aaditya,1,2024-12-06_12h14.40.121,Solo project,2024.2.4,61.03053724,2024-12-06 12h14.56.230798 +0530
aggravated,None,35,11,2,n,0.6680164,None,,,,,2,11,35,9,130.5313951,,,,,,,,,,,,,,,,,,,,,,,,,,,,,,,,,,,,,,130.5181328,130.5313951,130.5313951,131.2149272,n,0.6680164,None,aaditya,1,2024-12-06_12h14.40.121,Solo project,2024.2.4,61.03053724,2024-12-06 12h14.56.230798 +0530
depression,blue,36,0,3,y,0.8599874,None,,,,,3,0,36,1,131.2309746,,,,,,,,,,,,,,,,,,,,,,,,,,,,,,,,,,,,,,131.2173231,131.2309746,131.2309746,132.0979072,y,0.8599874,None,aaditya,1,2024-12-06_12h14.40.121,Solo project,2024.2.4,61.03053724,2024-12-06 12h14.56.230798 +0530
ashamed,None,37,1,3,n,0.6619479,None,,,,,3,1,37,8,132.1129508,,,,,,,,,,,,,,,,,,,,,,,,,,,,,,,,,,,,,,132.1003274,132.1129508,132.1129508,132.7823174,n,0.6619479,None,aaditya,1,2024-12-06_12h14.40.121,Solo project,2024.2.4,61.03053724,2024-12-06 12h14.56.230798 +0530
jealous,None,38,2,3,n,0.7249662,None,,,,,3,2,38,6,132.7961338,,,,,,,,,,,,,,,,,,,,,,,,,,,,,,,,,,,,,,132.7846587,132.7961338,132.7961338,133.530453,n,0.7249662,None,aaditya,1,2024-12-06_12h14.40.121,Solo project,2024.2.4,61.03053724,2024-12-06 12h14.56.230798 +0530
content,yellow,39,3,3,y,0.4733945,None,,,,,3,3,39,5,133.5455935,,,,,,,,,,,,,,,,,,,,,,,,,,,,,,,,,,,,,,133.5328826,133.5455935,133.5455935,134.0305166,y,0.4733945,None,aaditya,1,2024-12-06_12h14.40.121,Solo project,2024.2.4,61.03053724,2024-12-06 12h14.56.230798 +0530
fascinated,None,40,4,3,y,0.5021611,None,,,,,3,4,40,7,134.0455984,,,,,,,,,,,,,,,,,,,,,,,,,,,,,,,,,,,,,,134.0330286,134.0455984,134.0455984,134.5636422,y,0.5021611,None,aaditya,1,2024-12-06_12h14.40.121,Solo project,2024.2.4,61.03053724,2024-12-06 12h14.56.230798 +0530
joyous,yellow,41,5,3,y,0.5247608,None,,,,,3,5,41,4,134.5792851,,,,,,,,,,,,,,,,,,,,,,,,,,,,,,,,,,,,,,134.5658226,134.5792851,134.5792851,135.1131547,y,0.5247608,None,aaditya,1,2024-12-06_12h14.40.121,Solo project,2024.2.4,61.03053724,2024-12-06 12h14.56.230798 +0530
aggravated,None,42,6,3,n,0.5229344,None,,,,,3,6,42,9,135.1287803,,,,,,,,,,,,,,,,,,,,,,,,,,,,,,,,,,,,,,135.1156611,135.1287803,135.1287803,135.6626365,n,0.5229344,None,aaditya,1,2024-12-06_12h14.40.121,Solo project,2024.2.4,61.03053724,2024-12-06 12h14.56.230798 +0530
delighted,None,43,7,3,n,0.617946,None,,,,,3,7,43,11,135.679242,,,,,,,,,,,,,,,,,,,,,,,,,,,,,,,,,,,,,,135.665016,135.679242,135.679242,136.3125838,n,0.617946,None,aaditya,1,2024-12-06_12h14.40.121,Solo project,2024.2.4,61.03053724,2024-12-06 12h14.56.230798 +0530
calm,None,44,8,3,y,0.389228,None,,,,,3,8,44,10,136.3281166,,,,,,,,,,,,,,,,,,,,,,,,,,,,,,,,,,,,,,136.3150389,136.3281166,136.3281166,136.7292347,y,0.389228,None,aaditya,1,2024-12-06_12h14.40.121,Solo project,2024.2.4,61.03053724,2024-12-06 12h14.56.230798 +0530
excited ,yellow,45,9,3,y,0.4480481,None,,,,,3,9,45,3,136.7443809,,,,,,,,,,,,,,,,,,,,,,,,,,,,,,,,,,,,,,136.7318574,136.7443809,136.7443809,137.1957378,y,0.4480481,None,aaditya,1,2024-12-06_12h14.40.121,Solo project,2024.2.4,61.03053724,2024-12-06 12h14.56.230798 +0530
anxiety,blue,46,10,3,y,0.4450385,None,,,,,3,10,46,0,137.2111823,,,,,,,,,,,,,,,,,,,,,,,,,,,,,,,,,,,,,,137.1979824,137.2111823,137.2111823,137.6611821,y,0.4450385,None,aaditya,1,2024-12-06_12h14.40.121,Solo project,2024.2.4,61.03053724,2024-12-06 12h14.56.230798 +0530
vexed,blue,47,11,3,y,0.3535973,None,,,,,3,11,47,2,137.6775561,,,,,,,,,,,,,,,,,,,,,,,,,,,,,,,,,,,,,,137.6633266,137.6775561,137.6775561,138.0451681,y,0.3535973,None,aaditya,1,2024-12-06_12h14.40.121,Solo project,2024.2.4,61.03053724,2024-12-06 12h14.56.230798 +0530
excited ,yellow,48,0,4,y,0.4184841,None,,,,,4,0,48,3,138.0605736,,,,,,,,,,,,,,,,,,,,,,,,,,,,,,,,,,,,,,138.0475352,138.0605736,138.0605736,138.4948469,y,0.4184841,None,aaditya,1,2024-12-06_12h14.40.121,Solo project,2024.2.4,61.03053724,2024-12-06 12h14.56.230798 +0530
aggravated,None,49,1,4,n,0.6410708,None,,,,,4,1,49,9,138.5103567,,,,,,,,,,,,,,,,,,,,,,,,,,,,,,,,,,,,,,138.4974379,138.5103567,138.5103567,139.1610776,n,0.6410708,None,aaditya,1,2024-12-06_12h14.40.121,Solo project,2024.2.4,61.03053724,2024-12-06 12h14.56.230798 +0530
vexed,blue,50,2,4,y,0.7422653,None,,,,,4,2,50,2,139.1767786,,,,,,,,,,,,,,,,,,,,,,,,,,,,,,,,,,,,,,139.1632,139.1767786,139.1767786,139.9268939,y,0.7422653,None,aaditya,1,2024-12-06_12h14.40.121,Solo project,2024.2.4,61.03053724,2024-12-06 12h14.56.230798 +0530
joyous,yellow,51,3,4,y,0.4857381,None,,,,,4,3,51,4,139.943132,,,,,,,,,,,,,,,,,,,,,,,,,,,,,,,,,,,,,,139.9293735,139.943132,139.943132,140.4441526,y,0.4857381,None,aaditya,1,2024-12-06_12h14.40.121,Solo project,2024.2.4,61.03053724,2024-12-06 12h14.56.230798 +0530
depression,blue,52,4,4,y,0.3983496,None,,,,,4,4,52,1,140.4599413,,,,,,,,,,,,,,,,,,,,,,,,,,,,,,,,,,,,,,140.4470207,140.4599413,140.4599413,140.8605513,y,0.3983496,None,aaditya,1,2024-12-06_12h14.40.121,Solo project,2024.2.4,61.03053724,2024-12-06 12h14.56.230798 +0530
fascinated,None,53,5,4,y,0.3874491,None,,,,,4,5,53,7,140.8762378,,,,,,,,,,,,,,,,,,,,,,,,,,,,,,,,,,,,,,140.8631488,140.8762378,140.8762378,141.2771323,y,0.3874491,None,aaditya,1,2024-12-06_12h14.40.121,Solo project,2024.2.4,61.03053724,2024-12-06 12h14.56.230798 +0530
content,yellow,54,6,4,n,0.5012872,None,,,,,4,6,54,5,141.2927984,,,,,,,,,,,,,,,,,,,,,,,,,,,,,,,,,,,,,,141.279182,141.2927984,141.2927984,141.8097331,n,0.5012872,None,aaditya,1,2024-12-06_12h14.40.121,Solo project,2024.2.4,61.03053724,2024-12-06 12h14.56.230798 +0530
ashamed,None,55,7,4,y,0.5151395,None,,,,,4,7,55,8,141.8256636,,,,,,,,,,,,,,,,,,,,,,,,,,,,,,,,,,,,,,141.8119687,141.8256636,141.8256636,142.3426162,y,0.5151395,None,aaditya,1,2024-12-06_12h14.40.121,Solo project,2024.2.4,61.03053724,2024-12-06 12h14.56.230798 +0530
anxiety,blue,56,8,4,n,0.4837989,None,,,,,4,8,56,0,142.3589396,,,,,,,,,,,,,,,,,,,,,,,,,,,,,,,,,,,,,,142.3448209,142.3589396,142.3589396,142.8598028,n,0.4837989,None,aaditya,1,2024-12-06_12h14.40.121,Solo project,2024.2.4,61.03053724,2024-12-06 12h14.56.230798 +0530
jealous,None,57,9,4,n,0.7026658,None,,,,,4,9,57,6,142.8752386,,,,,,,,,,,,,,,,,,,,,,,,,,,,,,,,,,,,,,142.8625194,142.8752386,142.8752386,143.5936718,n,0.7026658,None,aaditya,1,2024-12-06_12h14.40.121,Solo project,2024.2.4,61.03053724,2024-12-06 12h14.56.230798 +0530
delighted,None,58,10,4,y,0.3587181,None,,,,,4,10,58,11,143.6089516,,,,,,,,,,,,,,,,,,,,,,,,,,,,,,,,,,,,,,143.5961056,143.6089516,143.6089516,143.9772404,y,0.3587181,None,aaditya,1,2024-12-06_12h14.40.121,Solo project,2024.2.4,61.03053724,2024-12-06 12h14.56.230798 +0530
calm,None,59,11,4,y,0.3282457,None,,,,,4,11,59,10,143.9911474,,,,,,,,,,,,,,,,,,,,,,,,,,,,,,,,,,,,,,143.9792837,143.9911474,143.9911474,144.3262388,y,0.3282457,None,aaditya,1,2024-12-06_12h14.40.121,Solo project,2024.2.4,61.03053724,2024-12-06 12h14.56.230798 +0530
jealous,None,0,0,0,y,0.8597985,None,,,,,0,0,0,6,118.183288,,,,,,,,,,,,,,,,,,,,,,,,,,,,,,,,,,,,,,118.1750001,118.183288,118.183288,119.0514694,y,0.8597985,None,Aaditya,1,2024-12-06_12h17.38.012,Solo project,2024.2.4,59.52132947,2024-12-06 12h17.47.433038 +0530
ashamed,None,1,1,0,y,0.400734,None,,,,,0,1,1,8,119.0662842,,,,,,,,,,,,,,,,,,,,,,,,,,,,,,,,,,,,,,119.053673,119.0662842,119.0662842,119.4688476,y,0.400734,None,Aaditya,1,2024-12-06_12h17.38.012,Solo project,2024.2.4,59.52132947,2024-12-06 12h17.47.433038 +0530
vexed,blue,2,2,0,y,0.3340656,None,,,,,0,2,2,2,119.4829745,,,,,,,,,,,,,,,,,,,,,,,,,,,,,,,,,,,,,,119.4717256,119.4829745,119.4829745,119.8187907,y,0.3340656,None,Aaditya,1,2024-12-06_12h17.38.012,Solo project,2024.2.4,59.52132947,2024-12-06 12h17.47.433038 +0530
excited ,yellow,3,3,0,y,0.3076236,None,,,,,0,3,3,3,119.8331605,,,,,,,,,,,,,,,,,,,,,,,,,,,,,,,,,,,,,,119.8211058,119.8331605,119.8331605,120.1513325,y,0.3076236,None,Aaditya,1,2024-12-06_12h17.38.012,Solo project,2024.2.4,59.52132947,2024-12-06 12h17.47.433038 +0530
calm,None,4,4,0,y,0.3182396,None,,,,,0,4,4,10,120.1659741,,,,,,,,,,,,,,,,,,,,,,,,,,,,,,,,,,,,,,120.1533558,120.1659741,120.1659741,120.5005866,y,0.3182396,None,Aaditya,1,2024-12-06_12h17.38.012,Solo project,2024.2.4,59.52132947,2024-12-06 12h17.47.433038 +0530
anxiety,blue,5,5,0,y,0.2965327,None,,,,,0,5,5,0,120.5161844,,,,,,,,,,,,,,,,,,,,,,,,,,,,,,,,,,,,,,120.5027578,120.5161844,120.5161844,120.8171129,y,0.2965327,None,Aaditya,1,2024-12-06_12h17.38.012,Solo project,2024.2.4,59.52132947,2024-12-06 12h17.47.433038 +0530
fascinated,None,6,6,0,y,0.3823959,None,,,,,0,6,6,7,120.832545,,,,,,,,,,,,,,,,,,,,,,,,,,,,,,,,,,,,,,120.8197488,120.832545,120.832545,121.217576,y,0.3823959,None,Aaditya,1,2024-12-06_12h17.38.012,Solo project,2024.2.4,59.52132947,2024-12-06 12h17.47.433038 +0530
joyous,yellow,7,7,0,y,0.3426348,None,,,,,0,7,7,4,121.2322937,,,,,,,,,,,,,,,,,,,,,,,,,,,,,,,,,,,,,,121.2197188,121.2322937,121.2322937,121.5837247,y,0.3426348,None,Aaditya,1,2024-12-06_12h17.38.012,Solo project,2024.2.4,59.52132947,2024-12-06 12h17.47.433038 +0530
delighted,None,8,8,0,y,0.3226654,None,,,,,0,8,8,11,121.5983763,,,,,,,,,,,,,,,,,,,,,,,,,,,,,,,,,,,,,,121.5866008,121.5983763,121.5983763,121.933584,y,0.3226654,None,Aaditya,1,2024-12-06_12h17.38.012,Solo project,2024.2.4,59.52132947,2024-12-06 12h17.47.433038 +0530
depression,blue,9,9,0,y,0.382841,None,,,,,0,9,9,1,121.9481892,,,,,,,,,,,,,,,,,,,,,,,,,,,,,,,,,,,,,,121.9360029,121.9481892,121.9481892,122.3337176,y,0.382841,None,Aaditya,1,2024-12-06_12h17.38.012,Solo project,2024.2.4,59.52132947,2024-12-06 12h17.47.433038 +0530
content,yellow,10,10,0,y,0.4023522,None,,,,,0,10,10,5,122.3482108,,,,,,,,,,,,,,,,,,,,,,,,,,,,,,,,,,,,,,122.3357803,122.3482108,122.3482108,122.7662115,y,0.4023522,None,Aaditya,1,2024-12-06_12h17.38.012,Solo project,2024.2.4,59.52132947,2024-12-06 12h17.47.433038 +0530
aggravated,None,11,11,0,n,0.772083,None,,,,,0,11,11,9,122.7815328,,,,,,,,,,,,,,,,,,,,,,,,,,,,,,,,,,,,,,122.7687538,122.7815328,122.7815328,123.5668562,n,0.772083,None,Aaditya,1,2024-12-06_12h17.38.012,Solo project,2024.2.4,59.52132947,2024-12-06 12h17.47.433038 +0530
anxiety,blue,12,0,1,y,0.5914121,None,,,,,1,0,12,0,123.5807989,,,,,,,,,,,,,,,,,,,,,,,,,,,,,,,,,,,,,,123.5690636,123.5807989,123.5807989,124.1827051,y,0.5914121,None,Aaditya,1,2024-12-06_12h17.38.012,Solo project,2024.2.4,59.52132947,2024-12-06 12h17.47.433038 +0530
depression,blue,13,1,1,y,0.1562295,None,,,,,1,1,13,1,124.1975201,,,,,,,,,,,,,,,,,,,,,,,,,,,,,,,,,,,,,,124.1850832,124.1975201,124.1975201,124.3659962,y,0.1562295,None,Aaditya,1,2024-12-06_12h17.38.012,Solo project,2024.2.4,59.52132947,2024-12-06 12h17.47.433038 +0530
ashamed,None,14,2,1,y,0.1389942,None,,,,,1,2,14,8,124.3804931,,,,,,,,,,,,,,,,,,,,,,,,,,,,,,,,,,,,,,124.3686434,124.3804931,124.3804931,124.5326412,y,0.1389942,None,Aaditya,1,2024-12-06_12h17.38.012,Solo project,2024.2.4,59.52132947,2024-12-06 12h17.47.433038 +0530
jealous,None,15,3,1,y,0.1358674,None,,,,,1,3,15,6,124.5471071,,,,,,,,,,,,,,,,,,,,,,,,,,,,,,,,,,,,,,124.5349841,124.5471071,124.5471071,124.6985256,y,0.1358674,None,Aaditya,1,2024-12-06_12h17.38.012,Solo project,2024.2.4,59.52132947,2024-12-06 12h17.47.433038 +0530
vexed,blue,16,4,1,y,0.154786,None,,,,,1,4,16,2,124.7139474,,,,,,,,,,,,,,,,,,,,,,,,,,,,,,,,,,,,,,124.7008172,124.7139474,124.7139474,124.8829113,y,0.154786,None,Aaditya,1,2024-12-06_12h17.38.012,Solo project,2024.2.4,59.52132947,2024-12-06 12h17.47.433038 +0530
excited ,yellow,17,5,1,y,0.3204795,None,,,,,1,5,17,3,124.8975375,,,,,,,,,,,,,,,,,,,,,,,,,,,,,,,,,,,,,,124.8853647,124.8975375,124.8975375,125.2327971,y,0.3204795,None,Aaditya,1,2024-12-06_12h17.38.012,Solo project,2024.2.4,59.52132947,2024-12-06 12h17.47.433038 +0530
calm,None,18,6,1,y,0.3372731,None,,,,,1,6,18,10,125.247533,,,,,,,,,,,,,,,,,,,,,,,,,,,,,,,,,,,,,,125.2348519,125.247533,125.247533,125.5988944,y,0.3372731,None,Aaditya,1,2024-12-06_12h17.38.012,Solo project,2024.2.4,59.52132947,2024-12-06 12h17.47.433038 +0530
delighted,None,19,7,1,y,0.3424649,None,,,,,1,7,19,11,125.6129567,,,,,,,,,,,,,,,,,,,,,,,,,,,,,,,,,,,,,,125.6012867,125.6129567,125.6129567,125.9654437,y,0.3424649,None,Aaditya,1,2024-12-06_12h17.38.012,Solo project,2024.2.4,59.52132947,2024-12-06 12h17.47.433038 +0530
content,yellow,20,8,1,y,0.3190621,None,,,,,1,8,20,5,125.9803962,,,,,,,,,,,,,,,,,,,,,,,,,,,,,,,,,,,,,,125.9678061,125.9803962,125.9803962,126.3147528,y,0.3190621,None,Aaditya,1,2024-12-06_12h17.38.012,Solo project,2024.2.4,59.52132947,2024-12-06 12h17.47.433038 +0530
aggravated,None,21,9,1,n,0.7944103,None,,,,,1,9,21,9,126.3295295,,,,,,,,,,,,,,,,,,,,,,,,,,,,,,,,,,,,,,126.3172193,126.3295295,126.3295295,127.1309063,n,0.7944103,None,Aaditya,1,2024-12-06_12h17.38.012,Solo project,2024.2.4,59.52132947,2024-12-06 12h17.47.433038 +0530
joyous,yellow,22,10,1,n,0.4698017,None,,,,,1,10,22,4,127.1459423,,,,,,,,,,,,,,,,,,,,,,,,,,,,,,,,,,,,,,127.1331277,127.1459423,127.1459423,127.6314336,n,0.4698017,None,Aaditya,1,2024-12-06_12h17.38.012,Solo project,2024.2.4,59.52132947,2024-12-06 12h17.47.433038 +0530
fascinated,None,23,11,1,y,0.411137,None,,,,,1,11,23,7,127.6457135,,,,,,,,,,,,,,,,,,,,,,,,,,,,,,,,,,,,,,127.6344025,127.6457135,127.6457135,128.0650138,y,0.411137,None,Aaditya,1,2024-12-06_12h17.38.012,Solo project,2024.2.4,59.52132947,2024-12-06 12h17.47.433038 +0530
anxiety,blue,24,0,2,y,0.4997494,None,,,,,2,0,24,0,128.0795067,,,,,,,,,,,,,,,,,,,,,,,,,,,,,,,,,,,,,,128.0672462,128.0795067,128.0795067,128.5809961,y,0.4997494,None,Aaditya,1,2024-12-06_12h17.38.012,Solo project,2024.2.4,59.52132947,2024-12-06 12h17.47.433038 +0530
excited ,yellow,25,1,2,n,0.2928824,None,,,,,2,1,25,3,128.5953656,,,,,,,,,,,,,,,,,,,,,,,,,,,,,,,,,,,,,,128.5834124,128.5953656,128.5953656,128.8977103,n,0.2928824,None,Aaditya,1,2024-12-06_12h17.38.012,Solo project,2024.2.4,59.52132947,2024-12-06 12h17.47.433038 +0530
delighted,None,26,2,2,y,0.2430709,None,,,,,2,2,26,11,128.9115616,,,,,,,,,,,,,,,,,,,,,,,,,,,,,,,,,,,,,,128.9004628,128.9115616,128.9115616,129.1639685,y,0.2430709,None,Aaditya,1,2024-12-06_12h17.38.012,Solo project,2024.2.4,59.52132947,2024-12-06 12h17.47.433038 +0530
content,yellow,27,3,2,y,0.5335061,None,,,,,2,3,27,5,129.178868,,,,,,,,,,,,,,,,,,,,,,,,,,,,,,,,,,,,,,129.165973,129.178868,129.178868,129.71391,y,0.5335061,None,Aaditya,1,2024-12-06_12h17.38.012,Solo project,2024.2.4,59.52132947,2024-12-06 12h17.47.433038 +0530
calm,None,28,4,2,y,0.306604,None,,,,,2,4,28,10,129.7283346,,,,,,,,,,,,,,,,,,,,,,,,,,,,,,,,,,,,,,129.7159472,129.7283346,129.7283346,130.0479846,y,0.306604,None,Aaditya,1,2024-12-06_12h17.38.012,Solo project,2024.2.4,59.52132947,2024-12-06 12h17.47.433038 +0530
ashamed,None,29,5,2,n,0.2797379,None,,,,,2,5,29,8,130.0619157,,,,,,,,,,,,,,,,,,,,,,,,,,,,,,,,,,,,,,130.0502431,130.0619157,130.0619157,130.3461288,n,0.2797379,None,Aaditya,1,2024-12-06_12h17.38.012,Solo project,2024.2.4,59.52132947,2024-12-06 12h17.47.433038 +0530
depression,blue,30,6,2,y,0.2648676,None,,,,,2,6,30,1,130.3612974,,,,,,,,,,,,,,,,,,,,,,,,,,,,,,,,,,,,,,130.3487926,130.3612974,130.3612974,130.6292821,y,0.2648676,None,Aaditya,1,2024-12-06_12h17.38.012,Solo project,2024.2.4,59.52132947,2024-12-06 12h17.47.433038 +0530
aggravated,None,31,7,2,y,0.417271,None,,,,,2,7,31,9,130.6446231,,,,,,,,,,,,,,,,,,,,,,,,,,,,,,,,,,,,,,130.6316639,130.6446231,130.6446231,131.0634311,y,0.417271,None,Aaditya,1,2024-12-06_12h17.38.012,Solo project,2024.2.4,59.52132947,2024-12-06 12h17.47.433038 +0530
jealous,None,32,8,2,y,0.4695398,None,,,,,2,8,32,6,131.0775754,,,,,,,,,,,,,,,,,,,,,,,,,,,,,,,,,,,,,,131.0660084,131.0775754,131.0775754,131.5631149,y,0.4695398,None,Aaditya,1,2024-12-06_12h17.38.012,Solo project,2024.2.4,59.52132947,2024-12-06 12h17.47.433038 +0530
joyous,yellow,33,9,2,y,0.2431011,None,,,,,2,9,33,4,131.5776813,,,,,,,,,,,,,,,,,,,,,,,,,,,,,,,,,,,,,,131.5652611,131.5776813,131.5776813,131.8299195,y,0.2431011,None,Aaditya,1,2024-12-06_12h17.38.012,Solo project,2024.2.4,59.52132947,2024-12-06 12h17.47.433038 +0530
vexed,blue,34,10,2,n,0.3026862,None,,,,,2,10,34,2,131.8442143,,,,,,,,,,,,,,,,,,,,,,,,,,,,,,,,,,,,,,131.8320489,131.8442143,131.8442143,132.1624811,n,0.3026862,None,Aaditya,1,2024-12-06_12h17.38.012,Solo project,2024.2.4,59.52132947,2024-12-06 12h17.47.433038 +0530
fascinated,None,35,11,2,y,0.3020678,None,,,,,2,11,35,7,132.1769226,,,,,,,,,,,,,,,,,,,,,,,,,,,,,,,,,,,,,,132.1650507,132.1769226,132.1769226,132.4954237,y,0.3020678,None,Aaditya,1,2024-12-06_12h17.38.012,Solo project,2024.2.4,59.52132947,2024-12-06 12h17.47.433038 +0530
excited ,yellow,36,0,3,y,0.491669,None,,,,,3,0,36,3,132.5122888,,,,,,,,,,,,,,,,,,,,,,,,,,,,,,,,,,,,,,132.4976813,132.5122888,132.5122888,133.0118836,y,0.491669,None,Aaditya,1,2024-12-06_12h17.38.012,Solo project,2024.2.4,59.52132947,2024-12-06 12h17.47.433038 +0530
aggravated,None,37,1,3,n,0.4591123,None,,,,,3,1,37,9,133.0270253,,,,,,,,,,,,,,,,,,,,,,,,,,,,,,,,,,,,,,133.0143888,133.0270253,133.0270253,133.4962118,n,0.4591123,None,Aaditya,1,2024-12-06_12h17.38.012,Solo project,2024.2.4,59.52132947,2024-12-06 12h17.47.433038 +0530
calm,None,38,2,3,n,0.5846699,None,,,,,3,2,38,10,133.5107648,,,,,,,,,,,,,,,,,,,,,,,,,,,,,,,,,,,,,,133.4985621,133.5107648,133.5107648,134.1125424,n,0.5846699,None,Aaditya,1,2024-12-06_12h17.38.012,Solo project,2024.2.4,59.52132947,2024-12-06 12h17.47.433038 +0530
content,yellow,39,3,3,y,0.2563571,None,,,,,3,3,39,5,134.1263378,,,,,,,,,,,,,,,,,,,,,,,,,,,,,,,,,,,,,,134.1145911,134.1263378,134.1263378,134.3951738,y,0.2563571,None,Aaditya,1,2024-12-06_12h17.38.012,Solo project,2024.2.4,59.52132947,2024-12-06 12h17.47.433038 +0530
fascinated,None,40,4,3,y,0.3763561,None,,,,,3,4,40,7,134.4092639,,,,,,,,,,,,,,,,,,,,,,,,,,,,,,,,,,,,,,134.3978523,134.4092639,134.4092639,134.7948406,y,0.3763561,None,Aaditya,1,2024-12-06_12h17.38.012,Solo project,2024.2.4,59.52132947,2024-12-06 12h17.47.433038 +0530
anxiety,blue,41,5,3,n,0.3260891,None,,,,,3,5,41,0,134.809365,,,,,,,,,,,,,,,,,,,,,,,,,,,,,,,,,,,,,,134.7970481,134.809365,134.809365,135.1446558,n,0.3260891,None,Aaditya,1,2024-12-06_12h17.38.012,Solo project,2024.2.4,59.52132947,2024-12-06 12h17.47.433038 +0530
vexed,blue,42,6,3,y,0.316372,None,,,,,3,6,42,2,135.1590938,,,,,,,,,,,,,,,,,,,,,,,,,,,,,,,,,,,,,,135.1468099,135.1590938,135.1590938,135.478394,y,0.316372,None,Aaditya,1,2024-12-06_12h17.38.012,Solo project,2024.2.4,59.52132947,2024-12-06 12h17.47.433038 +0530
ashamed,None,43,7,3,y,0.359827,None,,,,,3,7,43,8,135.4929437,,,,,,,,,,,,,,,,,,,,,,,,,,,,,,,,,,,,,,135.4807028,135.4929437,135.4929437,135.8611918,y,0.359827,None,Aaditya,1,2024-12-06_12h17.38.012,Solo project,2024.2.4,59.52132947,2024-12-06 12h17.47.433038 +0530
joyous,yellow,44,8,3,y,0.2704759,None,,,,,3,8,44,4,135.8756747,,,,,,,,,,,,,,,,,,,,,,,,,,,,,,,,,,,,,,135.8637639,135.8756747,135.8756747,136.1613521,y,0.2704759,None,Aaditya,1,2024-12-06_12h17.38.012,Solo project,2024.2.4,59.52132947,2024-12-06 12h17.47.433038 +0530
depression,blue,45,9,3,y,0.4571181,None,,,,,3,9,45,1,136.1761069,,,,,,,,,,,,,,,,,,,,,,,,,,,,,,,,,,,,,,136.1637807,136.1761069,136.1761069,136.6436801,y,0.4571181,None,Aaditya,1,2024-12-06_12h17.38.012,Solo project,2024.2.4,59.52132947,2024-12-06 12h17.47.433038 +0530
delighted,None,46,10,3,y,0.3225445,None,,,,,3,10,46,11,136.6586555,,,,,,,,,,,,,,,,,,,,,,,,,,,,,,,,,,,,,,136.6460899,136.6586555,136.6586555,136.9940263,y,0.3225445,None,Aaditya,1,2024-12-06_12h17.38.012,Solo project,2024.2.4,59.52132947,2024-12-06 12h17.47.433038 +0530
jealous,None,47,11,3,n,0.4419755,None,,,,,3,11,47,6,137.0084324,,,,,,,,,,,,,,,,,,,,,,,,,,,,,,,,,,,,,,136.9963932,137.0084324,137.0084324,137.4600303,n,0.4419755,None,Aaditya,1,2024-12-06_12h17.38.012,Solo project,2024.2.4,59.52132947,2024-12-06 12h17.47.433038 +0530
excited ,yellow,48,0,4,y,0.374798,None,,,,,4,0,48,3,137.4748609,,,,,,,,,,,,,,,,,,,,,,,,,,,,,,,,,,,,,,137.4623457,137.4748609,137.4748609,137.8603033,y,0.374798,None,Aaditya,1,2024-12-06_12h17.38.012,Solo project,2024.2.4,59.52132947,2024-12-06 12h17.47.433038 +0530
vexed,blue,49,1,4,y,0.2596017,None,,,,,4,1,49,2,137.8745885,,,,,,,,,,,,,,,,,,,,,,,,,,,,,,,,,,,,,,137.8625044,137.8745885,137.8745885,138.1439009,y,0.2596017,None,Aaditya,1,2024-12-06_12h17.38.012,Solo project,2024.2.4,59.52132947,2024-12-06 12h17.47.433038 +0530
content,yellow,50,2,4,y,0.2080141,None,,,,,4,2,50,5,138.1581238,,,,,,,,,,,,,,,,,,,,,,,,,,,,,,,,,,,,,,138.1462387,138.1581238,138.1581238,138.37632,y,0.2080141,None,Aaditya,1,2024-12-06_12h17.38.012,Solo project,2024.2.4,59.52132947,2024-12-06 12h17.47.433038 +0530
delighted,None,51,3,4,y,0.3636808,None,,,,,4,3,51,11,138.3910059,,,,,,,,,,,,,,,,,,,,,,,,,,,,,,,,,,,,,,138.3788059,138.3910059,138.3910059,138.7603999,y,0.3636808,None,Aaditya,1,2024-12-06_12h17.38.012,Solo project,2024.2.4,59.52132947,2024-12-06 12h17.47.433038 +0530
fascinated,None,52,4,4,y,0.3294357,None,,,,,4,4,52,7,138.7742614,,,,,,,,,,,,,,,,,,,,,,,,,,,,,,,,,,,,,,138.7629186,138.7742614,138.7742614,139.1090932,y,0.3294357,None,Aaditya,1,2024-12-06_12h17.38.012,Solo project,2024.2.4,59.52132947,2024-12-06 12h17.47.433038 +0530
calm,None,53,5,4,y,0.3818553,None,,,,,4,5,53,10,139.1238579,,,,,,,,,,,,,,,,,,,,,,,,,,,,,,,,,,,,,,139.1111041,139.1238579,139.1238579,139.5091039,y,0.3818553,None,Aaditya,1,2024-12-06_12h17.38.012,Solo project,2024.2.4,59.52132947,2024-12-06 12h17.47.433038 +0530
anxiety,blue,54,6,4,y,0.6743142,None,,,,,4,6,54,0,139.5242323,,,,,,,,,,,,,,,,,,,,,,,,,,,,,,,,,,,,,,139.5113043,139.5242323,139.5242323,140.2095289,y,0.6743142,None,Aaditya,1,2024-12-06_12h17.38.012,Solo project,2024.2.4,59.52132947,2024-12-06 12h17.47.433038 +0530
jealous,None,55,7,4,y,0.4240731,None,,,,,4,7,55,6,140.2236521,,,,,,,,,,,,,,,,,,,,,,,,,,,,,,,,,,,,,,140.2118059,140.2236521,140.2236521,140.6596301,y,0.4240731,None,Aaditya,1,2024-12-06_12h17.38.012,Solo project,2024.2.4,59.52132947,2024-12-06 12h17.47.433038 +0530
joyous,yellow,56,8,4,y,0.3286327,None,,,,,4,8,56,4,140.6742564,,,,,,,,,,,,,,,,,,,,,,,,,,,,,,,,,,,,,,140.6621523,140.6742564,140.6742564,141.0096141,y,0.3286327,None,Aaditya,1,2024-12-06_12h17.38.012,Solo project,2024.2.4,59.52132947,2024-12-06 12h17.47.433038 +0530
depression,blue,57,9,4,y,0.3351514,None,,,,,4,9,57,1,141.0235505,,,,,,,,,,,,,,,,,,,,,,,,,,,,,,,,,,,,,,141.0120451,141.0235505,141.0235505,141.3752598,y,0.3351514,None,Aaditya,1,2024-12-06_12h17.38.012,Solo project,2024.2.4,59.52132947,2024-12-06 12h17.47.433038 +0530
ashamed,None,58,10,4,y,0.3300823,None,,,,,4,10,58,8,141.3908686,,,,,,,,,,,,,,,,,,,,,,,,,,,,,,,,,,,,,,141.3775317,141.3908686,141.3908686,141.725033,y,0.3300823,None,Aaditya,1,2024-12-06_12h17.38.012,Solo project,2024.2.4,59.52132947,2024-12-06 12h17.47.433038 +0530
aggravated,None,59,11,4,n,0.7898408,None,,,,,4,11,59,9,141.7397341,,,,,,,,,,,,,,,,,,,,,,,,,,,,,,,,,,,,,,141.7275796,141.7397341,141.7397341,142.5414679,n,0.7898408,None,Aaditya,1,2024-12-06_12h17.38.012,Solo project,2024.2.4,59.52132947,2024-12-06 12h17.47.433038 +0530
