WordItem,WordColor,thisN,thisTrialN,thisRepN,key_resp_2.keys,key_resp_2.rt,key_resp_2.duration,trials.thisRepN,trials.thisTrialN,trials.thisN,trials.thisIndex,trials_2.thisRepN,trials_2.thisTrialN,trials_2.thisN,trials_2.thisIndex,thisRow.t,notes,Welcome_screen.started,Welcome.started,keyWelcome.started,Welcome_screen.stopped,keyWelcome.keys,keyWelcome.rt,keyWelcome.duration,Instructions.started,textInstructions.started,keyInstructions.started,Instructions.stopped,keyInstructions.keys,keyInstructions.rt,keyInstructions.duration,Study_trail.started,textStudytrail.started,textStudytrail.stopped,Study_trail.stopped,Blank_Screen.started,textBlank.started,Blank_Screen.stopped,textBlank.stopped,Wait_Screen.started,textWaitScreen.started,keyWaitScreen.started,Wait_Screen.stopped,keyWaitScreen.keys,keyWaitScreen.rt,keyWaitScreen.duration,Y_N_Screen.started,text.started,key_resp.started,Y_N_Screen.stopped,key_resp.keys,key_resp.rt,key_resp.duration,StudyTrails.started,text_2.started,key_resp_2.started,StudyTrails.stopped,trials_2.key_resp_2.keys,trials_2.key_resp_2.rt,trials_2.key_resp_2.duration,participant,session,date,expName,psychopyVersion,frameRate,expStart
,,,,,,,,,,,,,,,,,,0.0037246,0.0211636,0.0211636,1.2430126,space,1.2109364,None,,,,,,,,,,,,,,,,,,,,,,,,,,,,,,,,,,,,,Dhieraj,1,2024-12-06_11h58.14.619,Solo project,2024.2.4,59.97767631,2024-12-06 11h58.32.448377 +0530
,,,,,,,,,,,,,,,,,,,,,,,,,1.2430612,1.2528675,1.2528675,1.7380776,space,0.4756997,None,,,,,,,,,,,,,,,,,,,,,,,,,,,,,,Dhieraj,1,2024-12-06_11h58.14.619,Solo project,2024.2.4,59.97767631,2024-12-06 11h58.32.448377 +0530
depression,blue,0,0,0,,,,0,0,0,1,,,,,1.7528738,,,,,,,,,,,,,,,,1.7473982,1.7528738,3.7539876,3.7377469,3.7377827,3.7539876,4.2529638,,,,,,,,,,,,,,,,,,,,,,,Dhieraj,1,2024-12-06_11h58.14.619,Solo project,2024.2.4,59.97767631,2024-12-06 11h58.32.448377 +0530
content,yellow,1,1,0,,,,0,1,1,5,,,,,4.2685863,,,,,,,,,,,,,,,,4.2556234,4.2685863,,6.2522802,6.2523322,6.2689569,6.7520249,,,,,,,,,,,,,,,,,,,,,,,Dhieraj,1,2024-12-06_11h58.14.619,Solo project,2024.2.4,59.97767631,2024-12-06 11h58.32.448377 +0530
joyous,yellow,2,2,0,,,,0,2,2,4,,,,,6.7672399,,,,,,,,,,,,,,,,6.7558822,6.7672399,,8.7518979,8.7519558,8.768342,9.2512861,,,,,,,,,,,,,,,,,,,,,,,Dhieraj,1,2024-12-06_11h58.14.619,Solo project,2024.2.4,59.97767631,2024-12-06 11h58.32.448377 +0530
anxiety,blue,3,3,0,,,,0,3,3,0,,,,,9.2665323,,,,,,,,,,,,,,,,9.253847,9.2665323,,11.2504341,11.2504778,11.2671112,11.7501391,,,,,,,,,,,,,,,,,,,,,,,Dhieraj,1,2024-12-06_11h58.14.619,Solo project,2024.2.4,59.97767631,2024-12-06 11h58.32.448377 +0530
excited ,yellow,4,4,0,,,,0,4,4,3,,,,,11.7656736,,,,,,,,,,,,,,,,11.7528389,11.7656736,,13.7499846,13.7500506,13.765707,14.2488374,,,,,,,,,,,,,,,,,,,,,,,Dhieraj,1,2024-12-06_11h58.14.619,Solo project,2024.2.4,59.97767631,2024-12-06 11h58.32.448377 +0530
vexed,blue,5,5,0,,,,0,5,5,2,,,,,14.2644448,,,,,,,,,,,,,,,,14.2523718,14.2644448,,16.2487436,16.2487863,16.2650468,16.7484687,,,,,,,,,,,,,,,,,,,,,,,Dhieraj,1,2024-12-06_11h58.14.619,Solo project,2024.2.4,59.97767631,2024-12-06 11h58.32.448377 +0530
excited ,yellow,6,0,1,,,,1,0,6,3,,,,,16.7634128,,,,,,,,,,,,,,,,16.7514115,16.7634128,,18.7469326,18.7469915,18.7637317,19.2466646,,,,,,,,,,,,,,,,,,,,,,,Dhieraj,1,2024-12-06_11h58.14.619,Solo project,2024.2.4,59.97767631,2024-12-06 11h58.32.448377 +0530
vexed,blue,7,1,1,,,,1,1,7,2,,,,,19.2626064,,,,,,,,,,,,,,,,19.2492196,19.2626064,,21.2460087,21.2460519,21.26259,21.7459444,,,,,,,,,,,,,,,,,,,,,,,Dhieraj,1,2024-12-06_11h58.14.619,Solo project,2024.2.4,59.97767631,2024-12-06 11h58.32.448377 +0530
anxiety,blue,8,2,1,,,,1,2,8,0,,,,,21.7612274,,,,,,,,,,,,,,,,21.7485025,21.7612274,,23.7450019,23.745041,23.761819,24.2447824,,,,,,,,,,,,,,,,,,,,,,,Dhieraj,1,2024-12-06_11h58.14.619,Solo project,2024.2.4,59.97767631,2024-12-06 11h58.32.448377 +0530
depression,blue,9,3,1,,,,1,3,9,1,,,,,24.2605018,,,,,,,,,,,,,,,,24.2477285,24.2605018,,26.2441837,26.2442279,26.2603392,26.7437062,,,,,,,,,,,,,,,,,,,,,,,Dhieraj,1,2024-12-06_11h58.14.619,Solo project,2024.2.4,59.97767631,2024-12-06 11h58.32.448377 +0530
joyous,yellow,10,4,1,,,,1,4,10,4,,,,,26.759117,,,,,,,,,,,,,,,,26.7461773,26.759117,,28.7422945,28.7423502,28.758993,29.242896,,,,,,,,,,,,,,,,,,,,,,,Dhieraj,1,2024-12-06_11h58.14.619,Solo project,2024.2.4,59.97767631,2024-12-06 11h58.32.448377 +0530
content,yellow,11,5,1,,,,1,5,11,5,,,,,29.2577027,,,,,,,,,,,,,,,,29.2458071,29.2577027,,31.2419061,31.2419736,31.2580186,31.7418191,,,,,,,,,,,,,,,,,,,,,,,Dhieraj,1,2024-12-06_11h58.14.619,Solo project,2024.2.4,59.97767631,2024-12-06 11h58.32.448377 +0530
content,yellow,12,0,2,,,,2,0,12,5,,,,,31.7580342,,,,,,,,,,,,,,,,31.7424835,31.7580342,,33.7409238,33.7409788,33.7566171,34.2406486,,,,,,,,,,,,,,,,,,,,,,,Dhieraj,1,2024-12-06_11h58.14.619,Solo project,2024.2.4,59.97767631,2024-12-06 11h58.32.448377 +0530
depression,blue,13,1,2,,,,2,1,13,1,,,,,34.25583,,,,,,,,,,,,,,,,34.2434265,34.25583,,36.2403354,36.2403789,36.2567442,36.7395673,,,,,,,,,,,,,,,,,,,,,,,Dhieraj,1,2024-12-06_11h58.14.619,Solo project,2024.2.4,59.97767631,2024-12-06 11h58.32.448377 +0530
excited ,yellow,14,2,2,,,,2,2,14,3,,,,,36.7548839,,,,,,,,,,,,,,,,36.7421657,36.7548839,,38.7387242,38.7387844,38.7545298,39.2385858,39.2538436,,,,,,,,,,,,,,,,,,,,,,Dhieraj,1,2024-12-06_11h58.14.619,Solo project,2024.2.4,59.97767631,2024-12-06 11h58.32.448377 +0530
joyous,yellow,15,3,2,,,,2,3,15,4,,,,,39.2538436,,,,,,,,,,,,,,,,39.2410812,39.2538436,41.2538281,41.2382478,41.2382887,41.2538281,41.7375894,41.7528638,,,,,,,,,,,,,,,,,,,,,,Dhieraj,1,2024-12-06_11h58.14.619,Solo project,2024.2.4,59.97767631,2024-12-06 11h58.32.448377 +0530
anxiety,blue,16,4,2,,,,2,4,16,0,,,,,41.7528638,,,,,,,,,,,,,,,,41.7402117,41.7528638,43.7527671,43.7373721,43.7374083,43.7527671,44.2368144,44.2515165,,,,,,,,,,,,,,,,,,,,,,Dhieraj,1,2024-12-06_11h58.14.619,Solo project,2024.2.4,59.97767631,2024-12-06 11h58.32.448377 +0530
vexed,blue,17,5,2,,,,2,5,17,2,,,,,44.2515165,,,,,,,,,,,,,,,,44.2392233,44.2515165,46.251262,46.2357131,46.2357488,46.251262,46.7357614,46.7517751,,,,,,,,,,,,,,,,,,,,,,Dhieraj,1,2024-12-06_11h58.14.619,Solo project,2024.2.4,59.97767631,2024-12-06 11h58.32.448377 +0530
vexed,blue,18,0,3,,,,3,0,18,2,,,,,46.7517751,,,,,,,,,,,,,,,,46.7362616,46.7517751,48.7506873,48.7348141,48.7348493,48.7506873,49.2342658,49.2497151,,,,,,,,,,,,,,,,,,,,,,Dhieraj,1,2024-12-06_11h58.14.619,Solo project,2024.2.4,59.97767631,2024-12-06 11h58.32.448377 +0530
content,yellow,19,1,3,,,,3,1,19,5,,,,,49.2497151,,,,,,,,,,,,,,,,49.2369132,49.2497151,51.2498059,51.2333807,51.233424,51.2498059,51.7336606,51.7487076,,,,,,,,,,,,,,,,,,,,,,Dhieraj,1,2024-12-06_11h58.14.619,Solo project,2024.2.4,59.97767631,2024-12-06 11h58.32.448377 +0530
anxiety,blue,20,2,3,,,,3,2,20,0,,,,,51.7487076,,,,,,,,,,,,,,,,51.7362555,51.7487076,53.7487087,53.7328,53.7328352,53.7487087,54.2321455,54.2474471,,,,,,,,,,,,,,,,,,,,,,Dhieraj,1,2024-12-06_11h58.14.619,Solo project,2024.2.4,59.97767631,2024-12-06 11h58.32.448377 +0530
depression,blue,21,3,3,,,,3,3,21,1,,,,,54.2474471,,,,,,,,,,,,,,,,54.2349406,54.2474471,56.2471668,56.2320862,56.2321416,56.2471668,56.7308969,56.7455158,,,,,,,,,,,,,,,,,,,,,,Dhieraj,1,2024-12-06_11h58.14.619,Solo project,2024.2.4,59.97767631,2024-12-06 11h58.32.448377 +0530
joyous,yellow,22,4,3,,,,3,4,22,4,,,,,56.7455158,,,,,,,,,,,,,,,,56.7337338,56.7455158,58.745929,58.7298968,58.7299327,58.745929,59.2303985,59.2446139,,,,,,,,,,,,,,,,,,,,,,Dhieraj,1,2024-12-06_11h58.14.619,Solo project,2024.2.4,59.97767631,2024-12-06 11h58.32.448377 +0530
excited ,yellow,23,5,3,,,,3,5,23,3,,,,,59.2446139,,,,,,,,,,,,,,,,59.2329345,59.2446139,61.245084,61.2294875,61.2295227,61.245084,61.7286872,61.7437789,,,,,,,,,,,,,,,,,,,,,,Dhieraj,1,2024-12-06_11h58.14.619,Solo project,2024.2.4,59.97767631,2024-12-06 11h58.32.448377 +0530
anxiety,blue,24,0,4,,,,4,0,24,0,,,,,61.7437789,,,,,,,,,,,,,,,,61.7312328,61.7437789,63.7438457,63.7286008,63.728652,63.7438457,64.2277411,64.2429454,,,,,,,,,,,,,,,,,,,,,,Dhieraj,1,2024-12-06_11h58.14.619,Solo project,2024.2.4,59.97767631,2024-12-06 11h58.32.448377 +0530
content,yellow,25,1,4,,,,4,1,25,5,,,,,64.2429454,,,,,,,,,,,,,,,,64.2304767,64.2429454,66.2427961,66.2268968,66.2269321,66.2427961,66.7273453,66.7416953,,,,,,,,,,,,,,,,,,,,,,Dhieraj,1,2024-12-06_11h58.14.619,Solo project,2024.2.4,59.97767631,2024-12-06 11h58.32.448377 +0530
depression,blue,26,2,4,,,,4,2,26,1,,,,,66.7416953,,,,,,,,,,,,,,,,66.7301109,66.7416953,68.7419821,68.7263613,68.7264145,68.7419821,69.2257838,69.2411048,,,,,,,,,,,,,,,,,,,,,,Dhieraj,1,2024-12-06_11h58.14.619,Solo project,2024.2.4,59.97767631,2024-12-06 11h58.32.448377 +0530
joyous,yellow,27,3,4,,,,4,3,27,4,,,,,69.2411048,,,,,,,,,,,,,,,,69.2282328,69.2411048,71.2407081,71.2250771,71.2251123,71.2407081,71.7251408,71.740029,,,,,,,,,,,,,,,,,,,,,,Dhieraj,1,2024-12-06_11h58.14.619,Solo project,2024.2.4,59.97767631,2024-12-06 11h58.32.448377 +0530
vexed,blue,28,4,4,,,,4,4,28,2,,,,,71.740029,,,,,,,,,,,,,,,,71.7276035,71.740029,73.7395537,73.7245372,73.7245958,73.7395537,74.2233342,74.2390365,,,,,,,,,,,,,,,,,,,,,,Dhieraj,1,2024-12-06_11h58.14.619,Solo project,2024.2.4,59.97767631,2024-12-06 11h58.32.448377 +0530
excited ,yellow,29,5,4,,,,4,5,29,3,,,,,74.2390365,,,,,,,,,,,,,,,,74.226075,74.2390365,76.2396159,76.2234415,76.2234769,76.2396159,76.7228775,76.738154,,,,,,,,,,,,,,,,,,,,,,Dhieraj,1,2024-12-06_11h58.14.619,Solo project,2024.2.4,59.97767631,2024-12-06 11h58.32.448377 +0530
,,,,,,,,,,,,,,,,,,,,,,,,,,,,,,,,,,,,,,,,76.7229868,76.738154,76.738154,78.1397738,space,1.3919813,None,,,,,,,,,,,,,,,Dhieraj,1,2024-12-06_11h58.14.619,Solo project,2024.2.4,59.97767631,2024-12-06 11h58.32.448377 +0530
,,,,,,,,,,,,,,,,,,,,,,,,,,,,,,,,,,,,,,,,,,,,,,,78.1398361,78.153164,78.153164,79.2051129,space,1.0406393,None,,,,,,,,Dhieraj,1,2024-12-06_11h58.14.619,Solo project,2024.2.4,59.97767631,2024-12-06 11h58.32.448377 +0530
delighted,None,0,0,0,y,7.395236,None,,,,,0,0,0,11,79.2193473,,,,,,,,,,,,,,,,,,,,,,,,,,,,,,,,,,,,,,79.2119175,79.2193473,79.2193473,86.6182032,y,7.395236,None,Dhieraj,1,2024-12-06_11h58.14.619,Solo project,2024.2.4,59.97767631,2024-12-06 11h58.32.448377 +0530
vexed,blue,1,1,0,y,0.9224774,None,,,,,0,1,1,2,86.6330298,,,,,,,,,,,,,,,,,,,,,,,,,,,,,,,,,,,,,,86.6205532,86.6330298,86.6330298,87.5679617,y,0.9224774,None,Dhieraj,1,2024-12-06_11h58.14.619,Solo project,2024.2.4,59.97767631,2024-12-06 11h58.32.448377 +0530
anxiety,blue,2,2,0,y,0.763346,None,,,,,0,2,2,0,87.5824576,,,,,,,,,,,,,,,,,,,,,,,,,,,,,,,,,,,,,,87.5705443,87.5824576,87.5824576,88.3505375,y,0.763346,None,Dhieraj,1,2024-12-06_11h58.14.619,Solo project,2024.2.4,59.97767631,2024-12-06 11h58.32.448377 +0530
depression,blue,3,3,0,y,0.5206104,None,,,,,0,3,3,1,88.3654358,,,,,,,,,,,,,,,,,,,,,,,,,,,,,,,,,,,,,,88.3529633,88.3654358,88.3654358,88.9006935,y,0.5206104,None,Dhieraj,1,2024-12-06_11h58.14.619,Solo project,2024.2.4,59.97767631,2024-12-06 11h58.32.448377 +0530
aggravated,None,4,4,0,n,1.1564972,None,,,,,0,4,4,9,88.9150862,,,,,,,,,,,,,,,,,,,,,,,,,,,,,,,,,,,,,,88.9038985,88.9150862,88.9150862,90.0833397,n,1.1564972,None,Dhieraj,1,2024-12-06_11h58.14.619,Solo project,2024.2.4,59.97767631,2024-12-06 11h58.32.448377 +0530
jealous,None,5,5,0,n,0.7275044,None,,,,,0,5,5,6,90.0984462,,,,,,,,,,,,,,,,,,,,,,,,,,,,,,,,,,,,,,90.0856407,90.0984462,90.0984462,90.8333144,n,0.7275044,None,Dhieraj,1,2024-12-06_11h58.14.619,Solo project,2024.2.4,59.97767631,2024-12-06 11h58.32.448377 +0530
calm,None,6,6,0,y,0.6612533,None,,,,,0,6,6,10,90.8474187,,,,,,,,,,,,,,,,,,,,,,,,,,,,,,,,,,,,,,90.8353455,90.8474187,90.8474187,91.5170426,y,0.6612533,None,Dhieraj,1,2024-12-06_11h58.14.619,Solo project,2024.2.4,59.97767631,2024-12-06 11h58.32.448377 +0530
ashamed,None,7,7,0,y,0.7802024,None,,,,,0,7,7,8,91.5315669,,,,,,,,,,,,,,,,,,,,,,,,,,,,,,,,,,,,,,91.5193428,91.5315669,91.5315669,92.3158325,y,0.7802024,None,Dhieraj,1,2024-12-06_11h58.14.619,Solo project,2024.2.4,59.97767631,2024-12-06 11h58.32.448377 +0530
content,yellow,8,8,0,n,1.2017426,None,,,,,0,8,8,5,92.3310413,,,,,,,,,,,,,,,,,,,,,,,,,,,,,,,,,,,,,,92.3179011,92.3310413,92.3310413,93.5493033,n,1.2017426,None,Dhieraj,1,2024-12-06_11h58.14.619,Solo project,2024.2.4,59.97767631,2024-12-06 11h58.32.448377 +0530
excited ,yellow,9,9,0,y,0.534206,None,,,,,0,9,9,3,93.5630182,,,,,,,,,,,,,,,,,,,,,,,,,,,,,,,,,,,,,,93.5518247,93.5630182,93.5630182,94.0989701,y,0.534206,None,Dhieraj,1,2024-12-06_11h58.14.619,Solo project,2024.2.4,59.97767631,2024-12-06 11h58.32.448377 +0530
fascinated,None,10,10,0,y,0.4892431,None,,,,,0,10,10,7,94.1131334,,,,,,,,,,,,,,,,,,,,,,,,,,,,,,,,,,,,,,94.1018047,94.1131334,94.1131334,94.6153254,y,0.4892431,None,Dhieraj,1,2024-12-06_11h58.14.619,Solo project,2024.2.4,59.97767631,2024-12-06 11h58.32.448377 +0530
joyous,yellow,11,11,0,y,0.8866758,None,,,,,0,11,11,4,94.6294637,,,,,,,,,,,,,,,,,,,,,,,,,,,,,,,,,,,,,,94.617514,94.6294637,94.6294637,95.5315744,y,0.8866758,None,Dhieraj,1,2024-12-06_11h58.14.619,Solo project,2024.2.4,59.97767631,2024-12-06 11h58.32.448377 +0530
content,yellow,12,0,1,n,1.0996695,None,,,,,1,0,12,5,95.5464459,,,,,,,,,,,,,,,,,,,,,,,,,,,,,,,,,,,,,,95.5336015,95.5464459,95.5464459,96.647891,n,1.0996695,None,Dhieraj,1,2024-12-06_11h58.14.619,Solo project,2024.2.4,59.97767631,2024-12-06 11h58.32.448377 +0530
fascinated,None,13,1,1,n,1.2332502,None,,,,,1,1,13,7,96.6621341,,,,,,,,,,,,,,,,,,,,,,,,,,,,,,,,,,,,,,96.6503764,96.6621341,96.6621341,97.897315,n,1.2332502,None,Dhieraj,1,2024-12-06_11h58.14.619,Solo project,2024.2.4,59.97767631,2024-12-06 11h58.32.448377 +0530
jealous,None,14,2,1,y,0.5864766,None,,,,,1,2,14,6,97.9114416,,,,,,,,,,,,,,,,,,,,,,,,,,,,,,,,,,,,,,97.899549,97.9114416,97.9114416,98.5139459,y,0.5864766,None,Dhieraj,1,2024-12-06_11h58.14.619,Solo project,2024.2.4,59.97767631,2024-12-06 11h58.32.448377 +0530
anxiety,blue,15,3,1,y,0.3243048,None,,,,,1,3,15,0,98.5280904,,,,,,,,,,,,,,,,,,,,,,,,,,,,,,,,,,,,,,98.5161936,98.5280904,98.5280904,98.8636137,y,0.3243048,None,Dhieraj,1,2024-12-06_11h58.14.619,Solo project,2024.2.4,59.97767631,2024-12-06 11h58.32.448377 +0530
depression,blue,16,4,1,y,0.458765,None,,,,,1,4,16,1,98.8778503,,,,,,,,,,,,,,,,,,,,,,,,,,,,,,,,,,,,,,98.8663904,98.8778503,98.8778503,99.346804,y,0.458765,None,Dhieraj,1,2024-12-06_11h58.14.619,Solo project,2024.2.4,59.97767631,2024-12-06 11h58.32.448377 +0530
excited ,yellow,17,5,1,y,0.5185855,None,,,,,1,5,17,3,99.3609097,,,,,,,,,,,,,,,,,,,,,,,,,,,,,,,,,,,,,,99.3492411,99.3609097,99.3609097,99.895098,y,0.5185855,None,Dhieraj,1,2024-12-06_11h58.14.619,Solo project,2024.2.4,59.97767631,2024-12-06 11h58.32.448377 +0530
aggravated,None,18,6,1,n,0.9357065,None,,,,,1,6,18,9,99.910173,,,,,,,,,,,,,,,,,,,,,,,,,,,,,,,,,,,,,,99.898031,99.910173,99.910173,100.8622466,n,0.9357065,None,Dhieraj,1,2024-12-06_11h58.14.619,Solo project,2024.2.4,59.97767631,2024-12-06 11h58.32.448377 +0530
delighted,None,19,7,1,n,0.7640496,None,,,,,1,7,19,11,100.8765618,,,,,,,,,,,,,,,,,,,,,,,,,,,,,,,,,,,,,,100.8646326,100.8765618,100.8765618,101.6451022,n,0.7640496,None,Dhieraj,1,2024-12-06_11h58.14.619,Solo project,2024.2.4,59.97767631,2024-12-06 11h58.32.448377 +0530
calm,None,20,8,1,y,0.8397988,None,,,,,1,8,20,10,101.6597756,,,,,,,,,,,,,,,,,,,,,,,,,,,,,,,,,,,,,,101.6471581,101.6597756,101.6597756,102.5114957,y,0.8397988,None,Dhieraj,1,2024-12-06_11h58.14.619,Solo project,2024.2.4,59.97767631,2024-12-06 11h58.32.448377 +0530
ashamed,None,21,9,1,y,0.6963779,None,,,,,1,9,21,8,102.5265149,,,,,,,,,,,,,,,,,,,,,,,,,,,,,,,,,,,,,,102.5137889,102.5265149,102.5265149,103.227676,y,0.6963779,None,Dhieraj,1,2024-12-06_11h58.14.619,Solo project,2024.2.4,59.97767631,2024-12-06 11h58.32.448377 +0530
vexed,blue,22,10,1,y,0.6428619,None,,,,,1,10,22,2,103.2427692,,,,,,,,,,,,,,,,,,,,,,,,,,,,,,,,,,,,,,103.2301346,103.2427692,103.2427692,103.8943657,y,0.6428619,None,Dhieraj,1,2024-12-06_11h58.14.619,Solo project,2024.2.4,59.97767631,2024-12-06 11h58.32.448377 +0530
joyous,yellow,23,11,1,y,0.6490199,None,,,,,1,11,23,4,103.908593,,,,,,,,,,,,,,,,,,,,,,,,,,,,,,,,,,,,,,103.8964862,103.908593,103.908593,104.560333,y,0.6490199,None,Dhieraj,1,2024-12-06_11h58.14.619,Solo project,2024.2.4,59.97767631,2024-12-06 11h58.32.448377 +0530
joyous,yellow,24,0,2,y,1.7820841,None,,,,,2,0,24,4,104.5765341,,,,,,,,,,,,,,,,,,,,,,,,,,,,,,,,,,,,,,104.5605311,104.5765341,104.5765341,106.3599226,y,1.7820841,None,Dhieraj,1,2024-12-06_11h58.14.619,Solo project,2024.2.4,59.97767631,2024-12-06 11h58.32.448377 +0530
ashamed,None,25,1,2,y,1.167232,None,,,,,2,1,25,8,106.3742109,,,,,,,,,,,,,,,,,,,,,,,,,,,,,,,,,,,,,,106.3621481,106.3742109,106.3742109,107.5429023,y,1.167232,None,Dhieraj,1,2024-12-06_11h58.14.619,Solo project,2024.2.4,59.97767631,2024-12-06 11h58.32.448377 +0530
content,yellow,26,2,2,n,0.6559281,None,,,,,2,2,26,5,107.5570484,,,,,,,,,,,,,,,,,,,,,,,,,,,,,,,,,,,,,,107.54495,107.5570484,107.5570484,108.2252598,n,0.6559281,None,Dhieraj,1,2024-12-06_11h58.14.619,Solo project,2024.2.4,59.97767631,2024-12-06 11h58.32.448377 +0530
anxiety,blue,27,3,2,y,0.715308,None,,,,,2,3,27,0,108.2408045,,,,,,,,,,,,,,,,,,,,,,,,,,,,,,,,,,,,,,108.2274715,108.2408045,108.2408045,108.9578489,y,0.715308,None,Dhieraj,1,2024-12-06_11h58.14.619,Solo project,2024.2.4,59.97767631,2024-12-06 11h58.32.448377 +0530
depression,blue,28,4,2,y,0.5313068,None,,,,,2,4,28,1,108.9733604,,,,,,,,,,,,,,,,,,,,,,,,,,,,,,,,,,,,,,108.9607855,108.9733604,108.9733604,109.5082364,y,0.5313068,None,Dhieraj,1,2024-12-06_11h58.14.619,Solo project,2024.2.4,59.97767631,2024-12-06 11h58.32.448377 +0530
jealous,None,29,5,2,y,0.501512,None,,,,,2,5,29,6,109.5229609,,,,,,,,,,,,,,,,,,,,,,,,,,,,,,,,,,,,,,109.5108934,109.5229609,109.5229609,110.0407049,y,0.501512,None,Dhieraj,1,2024-12-06_11h58.14.619,Solo project,2024.2.4,59.97767631,2024-12-06 11h58.32.448377 +0530
calm,None,30,6,2,y,1.203492,None,,,,,2,6,30,10,110.0559755,,,,,,,,,,,,,,,,,,,,,,,,,,,,,,,,,,,,,,110.0426375,110.0559755,110.0559755,111.2747509,y,1.203492,None,Dhieraj,1,2024-12-06_11h58.14.619,Solo project,2024.2.4,59.97767631,2024-12-06 11h58.32.448377 +0530
vexed,blue,31,7,2,y,0.4719247,None,,,,,2,7,31,2,111.2893854,,,,,,,,,,,,,,,,,,,,,,,,,,,,,,,,,,,,,,111.2768842,111.2893854,111.2893854,111.7744026,y,0.4719247,None,Dhieraj,1,2024-12-06_11h58.14.619,Solo project,2024.2.4,59.97767631,2024-12-06 11h58.32.448377 +0530
fascinated,None,32,8,2,n,0.8866685,None,,,,,2,8,32,7,111.7888594,,,,,,,,,,,,,,,,,,,,,,,,,,,,,,,,,,,,,,111.7769785,111.7888594,111.7888594,112.6907485,n,0.8866685,None,Dhieraj,1,2024-12-06_11h58.14.619,Solo project,2024.2.4,59.97767631,2024-12-06 11h58.32.448377 +0530
excited ,yellow,33,9,2,y,0.8592008,None,,,,,2,9,33,3,112.7051817,,,,,,,,,,,,,,,,,,,,,,,,,,,,,,,,,,,,,,112.6930177,112.7051817,112.7051817,113.5735044,y,0.8592008,None,Dhieraj,1,2024-12-06_11h58.14.619,Solo project,2024.2.4,59.97767631,2024-12-06 11h58.32.448377 +0530
aggravated,None,34,10,2,n,0.8077322,None,,,,,2,10,34,9,113.5883176,,,,,,,,,,,,,,,,,,,,,,,,,,,,,,,,,,,,,,113.576011,113.5883176,113.5883176,114.4063131,n,0.8077322,None,Dhieraj,1,2024-12-06_11h58.14.619,Solo project,2024.2.4,59.97767631,2024-12-06 11h58.32.448377 +0530
delighted,None,35,11,2,y,1.1009478,None,,,,,2,11,35,11,114.4207718,,,,,,,,,,,,,,,,,,,,,,,,,,,,,,,,,,,,,,114.4090114,114.4207718,114.4207718,115.5234429,y,1.1009478,None,Dhieraj,1,2024-12-06_11h58.14.619,Solo project,2024.2.4,59.97767631,2024-12-06 11h58.32.448377 +0530
anxiety,blue,36,0,3,y,0.4243442,None,,,,,3,0,36,0,115.5371183,,,,,,,,,,,,,,,,,,,,,,,,,,,,,,,,,,,,,,115.5256238,115.5371183,115.5371183,115.9720446,y,0.4243442,None,Dhieraj,1,2024-12-06_11h58.14.619,Solo project,2024.2.4,59.97767631,2024-12-06 11h58.32.448377 +0530
jealous,None,37,1,3,y,0.4723655,None,,,,,3,1,37,6,115.9865243,,,,,,,,,,,,,,,,,,,,,,,,,,,,,,,,,,,,,,115.974396,115.9865243,115.9865243,116.4717178,y,0.4723655,None,Dhieraj,1,2024-12-06_11h58.14.619,Solo project,2024.2.4,59.97767631,2024-12-06 11h58.32.448377 +0530
calm,None,38,2,3,y,0.4373834,None,,,,,3,2,38,10,116.4863274,,,,,,,,,,,,,,,,,,,,,,,,,,,,,,,,,,,,,,116.473754,116.4863274,116.4863274,116.9386513,y,0.4373834,None,Dhieraj,1,2024-12-06_11h58.14.619,Solo project,2024.2.4,59.97767631,2024-12-06 11h58.32.448377 +0530
fascinated,None,39,3,3,n,0.9516955,None,,,,,3,3,39,7,116.9541896,,,,,,,,,,,,,,,,,,,,,,,,,,,,,,,,,,,,,,116.9412669,116.9541896,116.9541896,117.9214882,n,0.9516955,None,Dhieraj,1,2024-12-06_11h58.14.619,Solo project,2024.2.4,59.97767631,2024-12-06 11h58.32.448377 +0530
excited ,yellow,40,4,3,y,0.6732927,None,,,,,3,4,40,3,117.9366164,,,,,,,,,,,,,,,,,,,,,,,,,,,,,,,,,,,,,,117.9237839,117.9366164,117.9366164,118.6207656,y,0.6732927,None,Dhieraj,1,2024-12-06_11h58.14.619,Solo project,2024.2.4,59.97767631,2024-12-06 11h58.32.448377 +0530
aggravated,None,41,5,3,n,1.100596,None,,,,,3,5,41,9,118.6388123,,,,,,,,,,,,,,,,,,,,,,,,,,,,,,,,,,,,,,118.6235101,118.6388123,118.6388123,119.7546049,n,1.100596,None,Dhieraj,1,2024-12-06_11h58.14.619,Solo project,2024.2.4,59.97767631,2024-12-06 11h58.32.448377 +0530
joyous,yellow,42,6,3,y,0.7257402,None,,,,,3,6,42,4,119.7683571,,,,,,,,,,,,,,,,,,,,,,,,,,,,,,,,,,,,,,119.7567486,119.7683571,119.7683571,120.5035634,y,0.7257402,None,Dhieraj,1,2024-12-06_11h58.14.619,Solo project,2024.2.4,59.97767631,2024-12-06 11h58.32.448377 +0530
ashamed,None,43,7,3,y,2.1436826,None,,,,,3,7,43,8,120.5186776,,,,,,,,,,,,,,,,,,,,,,,,,,,,,,,,,,,,,,120.5058509,120.5186776,120.5186776,122.6701117,y,2.1436826,None,Dhieraj,1,2024-12-06_11h58.14.619,Solo project,2024.2.4,59.97767631,2024-12-06 11h58.32.448377 +0530
delighted,None,44,8,3,y,0.520796,None,,,,,3,8,44,11,122.6838675,,,,,,,,,,,,,,,,,,,,,,,,,,,,,,,,,,,,,,122.6725428,122.6838675,122.6838675,123.2192142,y,0.520796,None,Dhieraj,1,2024-12-06_11h58.14.619,Solo project,2024.2.4,59.97767631,2024-12-06 11h58.32.448377 +0530
content,yellow,45,9,3,n,0.808763,None,,,,,3,9,45,5,123.2336937,,,,,,,,,,,,,,,,,,,,,,,,,,,,,,,,,,,,,,123.2212204,123.2336937,123.2336937,124.0522701,n,0.808763,None,Dhieraj,1,2024-12-06_11h58.14.619,Solo project,2024.2.4,59.97767631,2024-12-06 11h58.32.448377 +0530
depression,blue,46,10,3,y,1.1182923,None,,,,,3,10,46,1,124.0671431,,,,,,,,,,,,,,,,,,,,,,,,,,,,,,,,,,,,,,124.0546791,124.0671431,124.0671431,125.2024407,y,1.1182923,None,Dhieraj,1,2024-12-06_11h58.14.619,Solo project,2024.2.4,59.97767631,2024-12-06 11h58.32.448377 +0530
vexed,blue,47,11,3,y,0.5673853,None,,,,,3,11,47,2,125.2163531,,,,,,,,,,,,,,,,,,,,,,,,,,,,,,,,,,,,,,125.2049642,125.2163531,125.2163531,125.7856627,y,0.5673853,None,Dhieraj,1,2024-12-06_11h58.14.619,Solo project,2024.2.4,59.97767631,2024-12-06 11h58.32.448377 +0530
excited ,yellow,48,0,4,y,0.959866,None,,,,,4,0,48,3,125.7994351,,,,,,,,,,,,,,,,,,,,,,,,,,,,,,,,,,,,,,125.7879253,125.7994351,125.7994351,126.7682855,y,0.959866,None,Dhieraj,1,2024-12-06_11h58.14.619,Solo project,2024.2.4,59.97767631,2024-12-06 11h58.32.448377 +0530
joyous,yellow,49,1,4,y,0.475168,None,,,,,4,1,49,4,126.7822041,,,,,,,,,,,,,,,,,,,,,,,,,,,,,,,,,,,,,,126.7704769,126.7822041,126.7822041,127.2678894,y,0.475168,None,Dhieraj,1,2024-12-06_11h58.14.619,Solo project,2024.2.4,59.97767631,2024-12-06 11h58.32.448377 +0530
vexed,blue,50,2,4,y,0.4178523,None,,,,,4,2,50,2,127.2816936,,,,,,,,,,,,,,,,,,,,,,,,,,,,,,,,,,,,,,127.2700223,127.2816936,127.2816936,127.7014418,y,0.4178523,None,Dhieraj,1,2024-12-06_11h58.14.619,Solo project,2024.2.4,59.97767631,2024-12-06 11h58.32.448377 +0530
delighted,None,51,3,4,y,1.2540523,None,,,,,4,3,51,11,127.7158187,,,,,,,,,,,,,,,,,,,,,,,,,,,,,,,,,,,,,,127.7039458,127.7158187,127.7158187,128.9840455,y,1.2540523,None,Dhieraj,1,2024-12-06_11h58.14.619,Solo project,2024.2.4,59.97767631,2024-12-06 11h58.32.448377 +0530
depression,blue,52,4,4,y,0.7275749,None,,,,,4,4,52,1,128.9978219,,,,,,,,,,,,,,,,,,,,,,,,,,,,,,,,,,,,,,128.9864655,128.9978219,128.9978219,129.7334964,y,0.7275749,None,Dhieraj,1,2024-12-06_11h58.14.619,Solo project,2024.2.4,59.97767631,2024-12-06 11h58.32.448377 +0530
jealous,None,53,5,4,y,0.6475416,None,,,,,4,5,53,6,129.7474193,,,,,,,,,,,,,,,,,,,,,,,,,,,,,,,,,,,,,,129.7362066,129.7474193,129.7474193,130.3990398,y,0.6475416,None,Dhieraj,1,2024-12-06_11h58.14.619,Solo project,2024.2.4,59.97767631,2024-12-06 11h58.32.448377 +0530
content,yellow,54,6,4,n,0.6850307,None,,,,,4,6,54,5,130.4141979,,,,,,,,,,,,,,,,,,,,,,,,,,,,,,,,,,,,,,130.401193,130.4141979,130.4141979,131.114962,n,0.6850307,None,Dhieraj,1,2024-12-06_11h58.14.619,Solo project,2024.2.4,59.97767631,2024-12-06 11h58.32.448377 +0530
anxiety,blue,55,7,4,y,0.8571884,None,,,,,4,7,55,0,131.1307214,,,,,,,,,,,,,,,,,,,,,,,,,,,,,,,,,,,,,,131.1172313,131.1307214,131.1307214,131.9982729,y,0.8571884,None,Dhieraj,1,2024-12-06_11h58.14.619,Solo project,2024.2.4,59.97767631,2024-12-06 11h58.32.448377 +0530
ashamed,None,56,8,4,y,0.562348,None,,,,,4,8,56,8,132.0132835,,,,,,,,,,,,,,,,,,,,,,,,,,,,,,,,,,,,,,132.0007206,132.0132835,132.0132835,132.5814051,y,0.562348,None,Dhieraj,1,2024-12-06_11h58.14.619,Solo project,2024.2.4,59.97767631,2024-12-06 11h58.32.448377 +0530
aggravated,None,57,9,4,n,1.2649644,None,,,,,4,9,57,9,132.596325,,,,,,,,,,,,,,,,,,,,,,,,,,,,,,,,,,,,,,132.5838596,132.596325,132.596325,133.8634416,n,1.2649644,None,Dhieraj,1,2024-12-06_11h58.14.619,Solo project,2024.2.4,59.97767631,2024-12-06 11h58.32.448377 +0530
fascinated,None,58,10,4,y,0.5726566,None,,,,,4,10,58,7,133.8797119,,,,,,,,,,,,,,,,,,,,,,,,,,,,,,,,,,,,,,133.8659763,133.8797119,133.8797119,134.4628765,y,0.5726566,None,Dhieraj,1,2024-12-06_11h58.14.619,Solo project,2024.2.4,59.97767631,2024-12-06 11h58.32.448377 +0530
calm,None,59,11,4,y,0.6510538,None,,,,,4,11,59,10,134.4795319,,,,,,,,,,,,,,,,,,,,,,,,,,,,,,,,,,,,,,134.4652486,134.4795319,134.4795319,135.1465468,y,0.6510538,None,Dhieraj,1,2024-12-06_11h58.14.619,Solo project,2024.2.4,59.97767631,2024-12-06 11h58.32.448377 +0530
ashamed,None,0,0,0,y,1.0085012,None,,,,,0,0,0,8,92.2110942,,,,,,,,,,,,,,,,,,,,,,,,,,,,,,,,,,,,,,92.2035033,92.2110942,92.2110942,93.2297522,y,1.0085012,None,Dhieraj,1,2024-12-06_12h01.02.568,Solo project,2024.2.4,60.14560047,2024-12-06 12h01.11.954971 +0530
jealous,None,1,1,0,y,0.7921095,None,,,,,0,1,1,6,93.2439919,,,,,,,,,,,,,,,,,,,,,,,,,,,,,,,,,,,,,,93.2327276,93.2439919,93.2439919,94.0453407,y,0.7921095,None,Dhieraj,1,2024-12-06_12h01.02.568,Solo project,2024.2.4,60.14560047,2024-12-06 12h01.11.954971 +0530
joyous,yellow,2,2,0,y,0.3687381,None,,,,,0,2,2,4,94.0609242,,,,,,,,,,,,,,,,,,,,,,,,,,,,,,,,,,,,,,94.0475265,94.0609242,94.0609242,94.4460328,y,0.3687381,None,Dhieraj,1,2024-12-06_12h01.02.568,Solo project,2024.2.4,60.14560047,2024-12-06 12h01.11.954971 +0530
delighted,None,3,3,0,y,0.2785281,None,,,,,0,3,3,11,94.4596853,,,,,,,,,,,,,,,,,,,,,,,,,,,,,,,,,,,,,,94.4485936,94.4596853,94.4596853,94.7453693,y,0.2785281,None,Dhieraj,1,2024-12-06_12h01.02.568,Solo project,2024.2.4,60.14560047,2024-12-06 12h01.11.954971 +0530
calm,None,4,4,0,y,0.6292701,None,,,,,0,4,4,10,94.7606744,,,,,,,,,,,,,,,,,,,,,,,,,,,,,,,,,,,,,,94.7473925,94.7606744,94.7606744,95.3951267,y,0.6292701,None,Dhieraj,1,2024-12-06_12h01.02.568,Solo project,2024.2.4,60.14560047,2024-12-06 12h01.11.954971 +0530
vexed,blue,5,5,0,y,0.4796985,None,,,,,0,5,5,2,95.4094793,,,,,,,,,,,,,,,,,,,,,,,,,,,,,,,,,,,,,,95.3973551,95.4094793,95.4094793,95.8952223,y,0.4796985,None,Dhieraj,1,2024-12-06_12h01.02.568,Solo project,2024.2.4,60.14560047,2024-12-06 12h01.11.954971 +0530
fascinated,None,6,6,0,n,0.8489408,None,,,,,0,6,6,7,95.9097234,,,,,,,,,,,,,,,,,,,,,,,,,,,,,,,,,,,,,,95.8980278,95.9097234,95.9097234,96.7612824,n,0.8489408,None,Dhieraj,1,2024-12-06_12h01.02.568,Solo project,2024.2.4,60.14560047,2024-12-06 12h01.11.954971 +0530
excited ,yellow,7,7,0,y,0.7031317,None,,,,,0,7,7,3,96.7761478,,,,,,,,,,,,,,,,,,,,,,,,,,,,,,,,,,,,,,96.7636118,96.7761478,96.7761478,97.4942534,y,0.7031317,None,Dhieraj,1,2024-12-06_12h01.02.568,Solo project,2024.2.4,60.14560047,2024-12-06 12h01.11.954971 +0530
depression,blue,8,8,0,y,0.5731153,None,,,,,0,8,8,1,97.5089414,,,,,,,,,,,,,,,,,,,,,,,,,,,,,,,,,,,,,,97.4966181,97.5089414,97.5089414,98.093394,y,0.5731153,None,Dhieraj,1,2024-12-06_12h01.02.568,Solo project,2024.2.4,60.14560047,2024-12-06 12h01.11.954971 +0530
content,yellow,9,9,0,y,0.3941765,None,,,,,0,9,9,5,98.1082589,,,,,,,,,,,,,,,,,,,,,,,,,,,,,,,,,,,,,,98.0953733,98.1082589,98.1082589,98.5101499,y,0.3941765,None,Dhieraj,1,2024-12-06_12h01.02.568,Solo project,2024.2.4,60.14560047,2024-12-06 12h01.11.954971 +0530
anxiety,blue,10,10,0,y,0.4151209,None,,,,,0,10,10,0,98.5251538,,,,,,,,,,,,,,,,,,,,,,,,,,,,,,,,,,,,,,98.5123304,98.5251538,98.5251538,98.9436988,y,0.4151209,None,Dhieraj,1,2024-12-06_12h01.02.568,Solo project,2024.2.4,60.14560047,2024-12-06 12h01.11.954971 +0530
aggravated,None,11,11,0,n,0.7359784,None,,,,,0,11,11,9,98.9582972,,,,,,,,,,,,,,,,,,,,,,,,,,,,,,,,,,,,,,98.9461405,98.9582972,98.9582972,99.7099376,n,0.7359784,None,Dhieraj,1,2024-12-06_12h01.02.568,Solo project,2024.2.4,60.14560047,2024-12-06 12h01.11.954971 +0530
jealous,None,12,0,1,y,0.6101453,None,,,,,1,0,12,6,99.7246247,,,,,,,,,,,,,,,,,,,,,,,,,,,,,,,,,,,,,,99.7125201,99.7246247,99.7246247,100.3431109,y,0.6101453,None,Dhieraj,1,2024-12-06_12h01.02.568,Solo project,2024.2.4,60.14560047,2024-12-06 12h01.11.954971 +0530
anxiety,blue,13,1,1,y,0.3819146,None,,,,,1,1,13,0,100.3571649,,,,,,,,,,,,,,,,,,,,,,,,,,,,,,,,,,,,,,100.3453105,100.3571649,100.3571649,100.7425231,y,0.3819146,None,Dhieraj,1,2024-12-06_12h01.02.568,Solo project,2024.2.4,60.14560047,2024-12-06 12h01.11.954971 +0530
ashamed,None,14,2,1,y,0.3095976,None,,,,,1,2,14,8,100.7569284,,,,,,,,,,,,,,,,,,,,,,,,,,,,,,,,,,,,,,100.7447661,100.7569284,100.7569284,101.0758948,y,0.3095976,None,Dhieraj,1,2024-12-06_12h01.02.568,Solo project,2024.2.4,60.14560047,2024-12-06 12h01.11.954971 +0530
fascinated,None,15,3,1,y,0.4183672,None,,,,,1,3,15,7,101.0901183,,,,,,,,,,,,,,,,,,,,,,,,,,,,,,,,,,,,,,101.0783752,101.0901183,101.0901183,101.5101724,y,0.4183672,None,Dhieraj,1,2024-12-06_12h01.02.568,Solo project,2024.2.4,60.14560047,2024-12-06 12h01.11.954971 +0530
depression,blue,16,4,1,y,0.5365898,None,,,,,1,4,16,1,101.5241287,,,,,,,,,,,,,,,,,,,,,,,,,,,,,,,,,,,,,,101.5125387,101.5241287,101.5241287,102.0754065,y,0.5365898,None,Dhieraj,1,2024-12-06_12h01.02.568,Solo project,2024.2.4,60.14560047,2024-12-06 12h01.11.954971 +0530
content,yellow,17,5,1,y,0.4602197,None,,,,,1,5,17,5,102.090561,,,,,,,,,,,,,,,,,,,,,,,,,,,,,,,,,,,,,,102.0774556,102.090561,102.090561,102.55763,y,0.4602197,None,Dhieraj,1,2024-12-06_12h01.02.568,Solo project,2024.2.4,60.14560047,2024-12-06 12h01.11.954971 +0530
aggravated,None,18,6,1,n,0.8370922,None,,,,,1,6,18,9,102.5736389,,,,,,,,,,,,,,,,,,,,,,,,,,,,,,,,,,,,,,102.5603088,102.5736389,102.5736389,103.4246011,n,0.8370922,None,Dhieraj,1,2024-12-06_12h01.02.568,Solo project,2024.2.4,60.14560047,2024-12-06 12h01.11.954971 +0530
delighted,None,19,7,1,y,0.7490846,None,,,,,1,7,19,11,103.4400704,,,,,,,,,,,,,,,,,,,,,,,,,,,,,,,,,,,,,,103.4269995,103.4400704,103.4400704,104.1908348,y,0.7490846,None,Dhieraj,1,2024-12-06_12h01.02.568,Solo project,2024.2.4,60.14560047,2024-12-06 12h01.11.954971 +0530
vexed,blue,20,8,1,y,0.6009388,None,,,,,1,8,20,2,104.2058051,,,,,,,,,,,,,,,,,,,,,,,,,,,,,,,,,,,,,,104.1929956,104.2058051,104.2058051,104.808313,y,0.6009388,None,Dhieraj,1,2024-12-06_12h01.02.568,Solo project,2024.2.4,60.14560047,2024-12-06 12h01.11.954971 +0530
joyous,yellow,21,9,1,y,0.6751637,None,,,,,1,9,21,4,104.8227977,,,,,,,,,,,,,,,,,,,,,,,,,,,,,,,,,,,,,,104.8104622,104.8227977,104.8227977,105.5084116,y,0.6751637,None,Dhieraj,1,2024-12-06_12h01.02.568,Solo project,2024.2.4,60.14560047,2024-12-06 12h01.11.954971 +0530
calm,None,22,10,1,y,0.6641904,None,,,,,1,10,22,10,105.5218299,,,,,,,,,,,,,,,,,,,,,,,,,,,,,,,,,,,,,,105.5104162,105.5218299,105.5218299,106.1900655,y,0.6641904,None,Dhieraj,1,2024-12-06_12h01.02.568,Solo project,2024.2.4,60.14560047,2024-12-06 12h01.11.954971 +0530
excited ,yellow,23,11,1,y,0.5671654,None,,,,,1,11,23,3,106.205233,,,,,,,,,,,,,,,,,,,,,,,,,,,,,,,,,,,,,,106.192345,106.205233,106.205233,106.7739638,y,0.5671654,None,Dhieraj,1,2024-12-06_12h01.02.568,Solo project,2024.2.4,60.14560047,2024-12-06 12h01.11.954971 +0530
aggravated,None,24,0,2,n,0.79362,None,,,,,2,0,24,9,106.7879339,,,,,,,,,,,,,,,,,,,,,,,,,,,,,,,,,,,,,,106.7767134,106.7879339,106.7879339,107.5895167,n,0.79362,None,Dhieraj,1,2024-12-06_12h01.02.568,Solo project,2024.2.4,60.14560047,2024-12-06 12h01.11.954971 +0530
ashamed,None,25,1,2,y,0.6941909,None,,,,,2,1,25,8,107.6039507,,,,,,,,,,,,,,,,,,,,,,,,,,,,,,,,,,,,,,107.5919033,107.6039507,107.6039507,108.3057092,y,0.6941909,None,Dhieraj,1,2024-12-06_12h01.02.568,Solo project,2024.2.4,60.14560047,2024-12-06 12h01.11.954971 +0530
fascinated,None,26,2,2,n,1.0334848,None,,,,,2,2,26,7,108.3205619,,,,,,,,,,,,,,,,,,,,,,,,,,,,,,,,,,,,,,108.3083431,108.3205619,108.3205619,109.3560859,n,1.0334848,None,Dhieraj,1,2024-12-06_12h01.02.568,Solo project,2024.2.4,60.14560047,2024-12-06 12h01.11.954971 +0530
delighted,None,27,3,2,y,0.564313,None,,,,,2,3,27,11,109.3705257,,,,,,,,,,,,,,,,,,,,,,,,,,,,,,,,,,,,,,109.3585852,109.3705257,109.3705257,109.9388085,y,0.564313,None,Dhieraj,1,2024-12-06_12h01.02.568,Solo project,2024.2.4,60.14560047,2024-12-06 12h01.11.954971 +0530
calm,None,28,4,2,y,0.3348257,None,,,,,2,4,28,10,109.9535311,,,,,,,,,,,,,,,,,,,,,,,,,,,,,,,,,,,,,,109.9408636,109.9535311,109.9535311,110.289779,y,0.3348257,None,Dhieraj,1,2024-12-06_12h01.02.568,Solo project,2024.2.4,60.14560047,2024-12-06 12h01.11.954971 +0530
vexed,blue,29,5,2,y,0.5960008,None,,,,,2,5,29,2,110.3038172,,,,,,,,,,,,,,,,,,,,,,,,,,,,,,,,,,,,,,110.2919541,110.3038172,110.3038172,110.9057817,y,0.5960008,None,Dhieraj,1,2024-12-06_12h01.02.568,Solo project,2024.2.4,60.14560047,2024-12-06 12h01.11.954971 +0530
joyous,yellow,30,6,2,y,0.6559871,None,,,,,2,6,30,4,110.9198147,,,,,,,,,,,,,,,,,,,,,,,,,,,,,,,,,,,,,,110.9083693,110.9198147,110.9198147,111.5881274,y,0.6559871,None,Dhieraj,1,2024-12-06_12h01.02.568,Solo project,2024.2.4,60.14560047,2024-12-06 12h01.11.954971 +0530
jealous,None,31,7,2,y,0.5334866,None,,,,,2,7,31,6,111.6024084,,,,,,,,,,,,,,,,,,,,,,,,,,,,,,,,,,,,,,111.5905321,111.6024084,111.6024084,112.1376483,y,0.5334866,None,Dhieraj,1,2024-12-06_12h01.02.568,Solo project,2024.2.4,60.14560047,2024-12-06 12h01.11.954971 +0530
excited ,yellow,32,8,2,y,0.4384402,None,,,,,2,8,32,3,112.1527945,,,,,,,,,,,,,,,,,,,,,,,,,,,,,,,,,,,,,,112.1399827,112.1527945,112.1527945,112.6044124,y,0.4384402,None,Dhieraj,1,2024-12-06_12h01.02.568,Solo project,2024.2.4,60.14560047,2024-12-06 12h01.11.954971 +0530
anxiety,blue,33,9,2,y,0.340681,None,,,,,2,9,33,0,112.6189721,,,,,,,,,,,,,,,,,,,,,,,,,,,,,,,,,,,,,,112.6067521,112.6189721,112.6189721,112.9708495,y,0.340681,None,Dhieraj,1,2024-12-06_12h01.02.568,Solo project,2024.2.4,60.14560047,2024-12-06 12h01.11.954971 +0530
depression,blue,34,10,2,y,0.4965014,None,,,,,2,10,34,1,112.9856276,,,,,,,,,,,,,,,,,,,,,,,,,,,,,,,,,,,,,,112.9732767,112.9856276,112.9856276,113.4871426,y,0.4965014,None,Dhieraj,1,2024-12-06_12h01.02.568,Solo project,2024.2.4,60.14560047,2024-12-06 12h01.11.954971 +0530
content,yellow,35,11,2,y,0.4379077,None,,,,,2,11,35,5,113.5017251,,,,,,,,,,,,,,,,,,,,,,,,,,,,,,,,,,,,,,113.4891708,113.5017251,113.5017251,113.9538308,y,0.4379077,None,Dhieraj,1,2024-12-06_12h01.02.568,Solo project,2024.2.4,60.14560047,2024-12-06 12h01.11.954971 +0530
fascinated,None,36,0,3,n,0.8253922,None,,,,,3,0,36,7,113.9681525,,,,,,,,,,,,,,,,,,,,,,,,,,,,,,,,,,,,,,113.9566734,113.9681525,113.9681525,114.8032691,n,0.8253922,None,Dhieraj,1,2024-12-06_12h01.02.568,Solo project,2024.2.4,60.14560047,2024-12-06 12h01.11.954971 +0530
jealous,None,37,1,3,y,0.5220825,None,,,,,3,1,37,6,114.8177728,,,,,,,,,,,,,,,,,,,,,,,,,,,,,,,,,,,,,,114.8055895,114.8177728,114.8177728,115.3533734,y,0.5220825,None,Dhieraj,1,2024-12-06_12h01.02.568,Solo project,2024.2.4,60.14560047,2024-12-06 12h01.11.954971 +0530
anxiety,blue,38,2,3,y,0.1978548,None,,,,,3,2,38,0,115.367279,,,,,,,,,,,,,,,,,,,,,,,,,,,,,,,,,,,,,,115.35574,115.367279,115.367279,115.5694355,y,0.1978548,None,Dhieraj,1,2024-12-06_12h01.02.568,Solo project,2024.2.4,60.14560047,2024-12-06 12h01.11.954971 +0530
calm,None,39,3,3,y,0.408674,None,,,,,3,3,39,10,115.5838277,,,,,,,,,,,,,,,,,,,,,,,,,,,,,,,,,,,,,,115.5714842,115.5838277,115.5838277,116.0029905,y,0.408674,None,Dhieraj,1,2024-12-06_12h01.02.568,Solo project,2024.2.4,60.14560047,2024-12-06 12h01.11.954971 +0530
aggravated,None,40,4,3,n,0.7184736,None,,,,,3,4,40,9,116.0176177,,,,,,,,,,,,,,,,,,,,,,,,,,,,,,,,,,,,,,116.0055372,116.0176177,116.0176177,116.7524128,n,0.7184736,None,Dhieraj,1,2024-12-06_12h01.02.568,Solo project,2024.2.4,60.14560047,2024-12-06 12h01.11.954971 +0530
content,yellow,41,5,3,y,0.5813489,None,,,,,3,5,41,5,116.7673422,,,,,,,,,,,,,,,,,,,,,,,,,,,,,,,,,,,,,,116.7544398,116.7673422,116.7673422,117.3519817,y,0.5813489,None,Dhieraj,1,2024-12-06_12h01.02.568,Solo project,2024.2.4,60.14560047,2024-12-06 12h01.11.954971 +0530
ashamed,None,42,6,3,y,0.5317376,None,,,,,3,6,42,8,117.3667093,,,,,,,,,,,,,,,,,,,,,,,,,,,,,,,,,,,,,,117.3546856,117.3667093,117.3667093,117.9017608,y,0.5317376,None,Dhieraj,1,2024-12-06_12h01.02.568,Solo project,2024.2.4,60.14560047,2024-12-06 12h01.11.954971 +0530
vexed,blue,43,7,3,y,0.376039,None,,,,,3,7,43,2,117.9163882,,,,,,,,,,,,,,,,,,,,,,,,,,,,,,,,,,,,,,117.9039111,117.9163882,117.9163882,118.3021189,y,0.376039,None,Dhieraj,1,2024-12-06_12h01.02.568,Solo project,2024.2.4,60.14560047,2024-12-06 12h01.11.954971 +0530
delighted,None,44,8,3,y,0.321594,None,,,,,3,8,44,11,118.3166168,,,,,,,,,,,,,,,,,,,,,,,,,,,,,,,,,,,,,,118.3047012,118.3166168,118.3166168,118.651358,y,0.321594,None,Dhieraj,1,2024-12-06_12h01.02.568,Solo project,2024.2.4,60.14560047,2024-12-06 12h01.11.954971 +0530
excited ,yellow,45,9,3,y,0.3029807,None,,,,,3,9,45,3,118.6664601,,,,,,,,,,,,,,,,,,,,,,,,,,,,,,,,,,,,,,118.6536617,118.6664601,118.6664601,118.9850365,y,0.3029807,None,Dhieraj,1,2024-12-06_12h01.02.568,Solo project,2024.2.4,60.14560047,2024-12-06 12h01.11.954971 +0530
joyous,yellow,46,10,3,y,0.4177225,None,,,,,3,10,46,4,118.9993608,,,,,,,,,,,,,,,,,,,,,,,,,,,,,,,,,,,,,,118.9871955,118.9993608,118.9993608,119.4186576,y,0.4177225,None,Dhieraj,1,2024-12-06_12h01.02.568,Solo project,2024.2.4,60.14560047,2024-12-06 12h01.11.954971 +0530
depression,blue,47,11,3,y,0.6565333,None,,,,,3,11,47,1,119.4325028,,,,,,,,,,,,,,,,,,,,,,,,,,,,,,,,,,,,,,119.4210627,119.4325028,119.4325028,120.1004935,y,0.6565333,None,Dhieraj,1,2024-12-06_12h01.02.568,Solo project,2024.2.4,60.14560047,2024-12-06 12h01.11.954971 +0530
ashamed,None,48,0,4,y,0.4263827,None,,,,,4,0,48,8,120.1155961,,,,,,,,,,,,,,,,,,,,,,,,,,,,,,,,,,,,,,120.1030713,120.1155961,120.1155961,120.5505304,y,0.4263827,None,Dhieraj,1,2024-12-06_12h01.02.568,Solo project,2024.2.4,60.14560047,2024-12-06 12h01.11.954971 +0530
calm,None,49,1,4,y,0.4187366,None,,,,,4,1,49,10,120.5655781,,,,,,,,,,,,,,,,,,,,,,,,,,,,,,,,,,,,,,120.5525857,120.5655781,120.5655781,121.0007592,y,0.4187366,None,Dhieraj,1,2024-12-06_12h01.02.568,Solo project,2024.2.4,60.14560047,2024-12-06 12h01.11.954971 +0530
excited ,yellow,50,2,4,y,0.3667909,None,,,,,4,2,50,3,121.014778,,,,,,,,,,,,,,,,,,,,,,,,,,,,,,,,,,,,,,121.0030848,121.014778,121.014778,121.3839852,y,0.3667909,None,Dhieraj,1,2024-12-06_12h01.02.568,Solo project,2024.2.4,60.14560047,2024-12-06 12h01.11.954971 +0530
vexed,blue,51,3,4,y,0.3574556,None,,,,,4,3,51,2,121.3983269,,,,,,,,,,,,,,,,,,,,,,,,,,,,,,,,,,,,,,121.3861174,121.3983269,121.3983269,121.7671267,y,0.3574556,None,Dhieraj,1,2024-12-06_12h01.02.568,Solo project,2024.2.4,60.14560047,2024-12-06 12h01.11.954971 +0530
fascinated,None,52,4,4,n,0.7195068,None,,,,,4,4,52,7,121.7811041,,,,,,,,,,,,,,,,,,,,,,,,,,,,,,,,,,,,,,121.769677,121.7811041,121.7811041,122.5174024,n,0.7195068,None,Dhieraj,1,2024-12-06_12h01.02.568,Solo project,2024.2.4,60.14560047,2024-12-06 12h01.11.954971 +0530
aggravated,None,53,5,4,n,0.8784998,None,,,,,4,5,53,9,122.5317044,,,,,,,,,,,,,,,,,,,,,,,,,,,,,,,,,,,,,,122.5199338,122.5317044,122.5317044,123.4159037,n,0.8784998,None,Dhieraj,1,2024-12-06_12h01.02.568,Solo project,2024.2.4,60.14560047,2024-12-06 12h01.11.954971 +0530
content,yellow,54,6,4,y,0.7991506,None,,,,,4,6,54,5,123.4310549,,,,,,,,,,,,,,,,,,,,,,,,,,,,,,,,,,,,,,123.4193736,123.4310549,123.4310549,124.2325846,y,0.7991506,None,Dhieraj,1,2024-12-06_12h01.02.568,Solo project,2024.2.4,60.14560047,2024-12-06 12h01.11.954971 +0530
anxiety,blue,55,7,4,y,0.350353,None,,,,,4,7,55,0,124.2474388,,,,,,,,,,,,,,,,,,,,,,,,,,,,,,,,,,,,,,124.2348371,124.2474388,124.2474388,124.5995762,y,0.350353,None,Dhieraj,1,2024-12-06_12h01.02.568,Solo project,2024.2.4,60.14560047,2024-12-06 12h01.11.954971 +0530
delighted,None,56,8,4,y,0.1686452,None,,,,,4,8,56,11,124.6138116,,,,,,,,,,,,,,,,,,,,,,,,,,,,,,,,,,,,,,124.6019735,124.6138116,124.6138116,124.7991538,y,0.1686452,None,Dhieraj,1,2024-12-06_12h01.02.568,Solo project,2024.2.4,60.14560047,2024-12-06 12h01.11.954971 +0530
jealous,None,57,9,4,y,0.1543055,None,,,,,4,9,57,6,124.8134723,,,,,,,,,,,,,,,,,,,,,,,,,,,,,,,,,,,,,,124.8013989,124.8134723,124.8134723,124.9824866,y,0.1543055,None,Dhieraj,1,2024-12-06_12h01.02.568,Solo project,2024.2.4,60.14560047,2024-12-06 12h01.11.954971 +0530
depression,blue,58,10,4,y,0.4673947,None,,,,,4,10,58,1,124.9965971,,,,,,,,,,,,,,,,,,,,,,,,,,,,,,,,,,,,,,124.9849355,124.9965971,124.9965971,125.4653649,y,0.4673947,None,Dhieraj,1,2024-12-06_12h01.02.568,Solo project,2024.2.4,60.14560047,2024-12-06 12h01.11.954971 +0530
joyous,yellow,59,11,4,y,0.4399754,None,,,,,4,11,59,4,125.4801559,,,,,,,,,,,,,,,,,,,,,,,,,,,,,,,,,,,,,,125.4675641,125.4801559,125.4801559,125.9318482,y,0.4399754,None,Dhieraj,1,2024-12-06_12h01.02.568,Solo project,2024.2.4,60.14560047,2024-12-06 12h01.11.954971 +0530
