thisN,thisTrialN,thisRepN,mouse.x,mouse.y,mouse.leftButton,mouse.midButton,mouse.rightButton,mouse.time,mouse.clicked_name,trials.thisRepN,trials.thisTrialN,trials.thisN,trials.thisIndex,thisRow.t,notes,num_distr,trial.started,fixation.started,target.started,mouse.started,trial.stopped,trials.mouse.x,trials.mouse.y,trials.mouse.leftButton,trials.mouse.midButton,trials.mouse.rightButton,trials.mouse.time,trials.mouse.clicked_name,participant,session,date,expName,psychopyVersion,frameRate,expStart,
0,0,0,[0.1825],[-0.09833333333333333],[1],[0],[0],[1.5911573998164386],['target'],0,0,0,0,0.0534532000310719,,5,0.029436799930408597,0.0534532000310719,0.0534532000310719,0.029123000102117658,1.6209425998385996,[0.1825],[-0.09833333333333333],[1],[0],[0],[1.5911573998164386],['target'],127600,001,2024-10-11_12h00.25.095,visual search experiement,2024.2.1post4,59.91816372083085,2024-10-11 12h00.36.614521 +0530,
1,0,1,[0.3416666666666667],[-0.4025],[1],[0],[0],[1.0830753999762237],['target'],1,0,1,0,1.6607285998761654,,10,1.6438322998583317,1.6607285998761654,1.6607285998761654,0.022732699988409877,2.7273197998292744,[0.3416666666666667],[-0.4025],[1],[0],[0],[1.0830753999762237],['target'],127600,001,2024-10-11_12h00.25.095,visual search experiement,2024.2.1post4,59.91816372083085,2024-10-11 12h00.36.614521 +0530,
2,0,2,[-0.1275],[0.11666666666666667],[1],[0],[0],[1.201403700048104],['target'],2,0,2,0,2.7681557999458164,,10,2.749985799891874,2.7681557999458164,2.7681557999458164,0.022507699904963374,3.951795700006187,[-0.1275],[0.11666666666666667],[1],[0],[0],[1.201403700048104],['target'],127600,001,2024-10-11_12h00.25.095,visual search experiement,2024.2.1post4,59.91816372083085,2024-10-11 12h00.36.614521 +0530,
3,0,3,[0.16333333333333333],[0.21],[1],[0],[0],[1.0747268998529762],['target'],3,0,3,0,3.9713798998855054,,5,3.963525200029835,3.9713798998855054,3.9713798998855054,0.011574700009077787,5.038633099989966,[0.16333333333333333],[0.21],[1],[0],[0],[1.0747268998529762],['target'],127600,001,2024-10-11_12h00.25.095,visual search experiement,2024.2.1post4,59.91816372083085,2024-10-11 12h00.36.614521 +0530,
4,0,4,[0.24166666666666667],[-0.3675],[1],[0],[0],[1.4684353999327868],['target'],4,0,4,0,5.07956980005838,,10,5.061221699928865,5.07956980005838,5.07956980005838,0.022425999864935875,6.530138399917632,[0.24166666666666667],[-0.3675],[1],[0],[0],[1.4684353999327868],['target'],127600,001,2024-10-11_12h00.25.095,visual search experiement,2024.2.1post4,59.91816372083085,2024-10-11 12h00.36.614521 +0530,
5,0,5,[0.014166666666666666],[0.09416666666666666],[1],[0],[0],[1.141841100063175],['target'],5,0,5,0,6.551022100029513,,5,6.542354000033811,6.551022100029513,6.551022100029513,0.011985999997705221,7.684535299893469,[0.014166666666666666],[0.09416666666666666],[1],[0],[0],[1.141841100063175],['target'],127600,001,2024-10-11_12h00.25.095,visual search experiement,2024.2.1post4,59.91816372083085,2024-10-11 12h00.36.614521 +0530,
6,0,6,[-0.38666666666666666],[-0.060833333333333336],[1],[0],[0],[1.3086904999800026],['target'],6,0,6,0,7.7047848999500275,,5,7.69627849990502,7.7047848999500275,7.7047848999500275,0.011606399901211262,9.005329499952495,[-0.38666666666666666],[-0.060833333333333336],[1],[0],[0],[1.3086904999800026],['target'],127600,001,2024-10-11_12h00.25.095,visual search experiement,2024.2.1post4,59.91816372083085,2024-10-11 12h00.36.614521 +0530,
7,0,7,[-0.07416666666666667],[0.165],[1],[0],[0],[1.125196099979803],['target'],7,0,7,0,9.025045800022781,,5,9.0168220999185,9.025045800022781,9.025045800022781,0.01135789998807013,10.142358599929139,[-0.07416666666666667],[0.165],[1],[0],[0],[1.125196099979803],['target'],127600,001,2024-10-11_12h00.25.095,visual search experiement,2024.2.1post4,59.91816372083085,2024-10-11 12h00.36.614521 +0530,
8,0,8,[-0.22583333333333333],[0.31583333333333335],[1],[0],[0],[1.175364200025797],['target'],8,0,8,0,10.162450299831107,,5,10.15405620005913,10.162450299831107,10.162450299831107,0.011543700005859137,11.329819499980658,[-0.22583333333333333],[0.31583333333333335],[1],[0],[0],[1.175364200025797],['target'],127600,001,2024-10-11_12h00.25.095,visual search experiement,2024.2.1post4,59.91816372083085,2024-10-11 12h00.36.614521 +0530,
9,0,9,[0.2775],[0.06833333333333333],[1],[0],[0],[1.4090247000567615],['target'],9,0,9,0,11.354037399869412,,5,11.341794099891558,11.354037399869412,11.354037399869412,0.01179860020056367,12.751306500053033,[0.2775],[0.06833333333333333],[1],[0],[0],[1.4090247000567615],['target'],127600,001,2024-10-11_12h00.25.095,visual search experiement,2024.2.1post4,59.91816372083085,2024-10-11 12h00.36.614521 +0530,
10,0,10,[0.2783333333333333],[-0.013333333333333334],[1],[0],[0],[1.052285199984908],['target'],10,0,10,0,12.791991599835455,,10,12.773726399987936,12.791991599835455,12.791991599835455,0.02227910002693534,13.826463399920613,[0.2783333333333333],[-0.013333333333333334],[1],[0],[0],[1.052285199984908],['target'],127600,001,2024-10-11_12h00.25.095,visual search experiement,2024.2.1post4,59.91816372083085,2024-10-11 12h00.36.614521 +0530,
11,0,11,[-0.36833333333333335],[0.3933333333333333],[1],[0],[0],[1.4431549001019448],['target'],11,0,11,0,13.847313199890777,,5,13.838332699844614,13.847313199890777,13.847313199890777,0.01170919998548925,15.281953499885276,[-0.36833333333333335],[0.3933333333333333],[1],[0],[0],[1.4431549001019448],['target'],127600,001,2024-10-11_12h00.25.095,visual search experiement,2024.2.1post4,59.91816372083085,2024-10-11 12h00.36.614521 +0530,
12,0,12,[-0.43833333333333335],[-0.29833333333333334],[1],[0],[0],[1.4750518000219017],['target'],12,0,12,0,15.302728899987414,,5,15.294126099906862,15.302728899987414,15.302728899987414,0.011950899846851826,16.76952249999158,[-0.43833333333333335],[-0.29833333333333334],[1],[0],[0],[1.4750518000219017],['target'],127600,001,2024-10-11_12h00.25.095,visual search experiement,2024.2.1post4,59.91816372083085,2024-10-11 12h00.36.614521 +0530,
13,0,13,[-0.11666666666666667],[0.2783333333333333],[1],[0],[0],[1.0749462998937815],['target'],13,0,13,0,16.788690899964422,,5,16.78104729996994,16.788690899964422,16.788690899964422,0.01138040004298091,17.856324600055814,[-0.11666666666666667],[0.2783333333333333],[1],[0],[0],[1.0749462998937815],['target'],127600,001,2024-10-11_12h00.25.095,visual search experiement,2024.2.1post4,59.91816372083085,2024-10-11 12h00.36.614521 +0530,
14,0,14,[0.12916666666666668],[0.4525],[1],[0],[0],[1.3753152000717819],['target'],14,0,14,0,17.87675519986078,,5,17.868466299958527,17.87675519986078,17.87675519986078,0.011987500125542283,19.24412289983593,[0.12916666666666668],[0.4525],[1],[0],[0],[1.3753152000717819],['target'],127600,001,2024-10-11_12h00.25.095,visual search experiement,2024.2.1post4,59.91816372083085,2024-10-11 12h00.36.614521 +0530,
15,0,15,[0.12916666666666668],[0.4525],[0],[0],[1],[1.3197841998189688],[None],15,0,15,0,19.285446499940008,,10,19.26685669994913,19.285446499940008,19.285446499940008,0.02259249985218048,20.587209299905226,[0.12916666666666668],[0.4525],[0],[0],[1],[1.3197841998189688],[None],127600,001,2024-10-11_12h00.25.095,visual search experiement,2024.2.1post4,59.91816372083085,2024-10-11 12h00.36.614521 +0530,
16,0,16,[0.12916666666666668],[0.4525],[0],[0],[1],[0.14809240004979074],[None],16,0,16,0,20.650653399992734,,10,20.620381199987605,20.650653399992734,20.650653399992734,0.03292130003683269,20.768987799994648,[0.12916666666666668],[0.4525],[0],[0],[1],[0.14809240004979074],[None],127600,001,2024-10-11_12h00.25.095,visual search experiement,2024.2.1post4,59.91816372083085,2024-10-11 12h00.36.614521 +0530,
17,0,17,[0.12916666666666668],[0.4525],[0],[0],[1],[0.11861050012521446],[None],17,0,17,0,20.818347400054336,,10,20.802095799939707,20.818347400054336,20.818347400054336,0.03283949987962842,20.92133459984325,[0.12916666666666668],[0.4525],[0],[0],[1],[0.11861050012521446],[None],127600,001,2024-10-11_12h00.25.095,visual search experiement,2024.2.1post4,59.91816372083085,2024-10-11 12h00.36.614521 +0530,
18,0,18,[0.12916666666666668],[0.4525],[0],[0],[1],[0.10158320004120469],[None],18,0,18,0,20.975446399999782,,10,20.958335099974647,20.975446399999782,20.975446399999782,0.03677310002967715,21.06046439986676,[0.12916666666666668],[0.4525],[0],[0],[1],[0.10158320004120469],[None],127600,001,2024-10-11_12h00.25.095,visual search experiement,2024.2.1post4,59.91816372083085,2024-10-11 12h00.36.614521 +0530,
19,0,19,[0.12916666666666668],[0.4525],[0],[0],[1],[0.10539719997905195],[None],19,0,19,0,21.100140899885446,,5,21.07954439986497,21.100140899885446,21.100140899885446,0.01883069984614849,21.185417299857363,[0.12916666666666668],[0.4525],[0],[0],[1],[0.10539719997905195],[None],127600,001,2024-10-11_12h00.25.095,visual search experiement,2024.2.1post4,59.91816372083085,2024-10-11 12h00.36.614521 +0530,
20,0,20,[0.12916666666666668],[0.4525],[0],[0],[1],[0.09486150019802153],[None],20,0,20,0,21.25023419992067,,10,21.223499699961394,21.25023419992067,21.25023419992067,0.0378477000631392,21.318769299890846,[0.12916666666666668],[0.4525],[0],[0],[1],[0.09486150019802153],[None],127600,001,2024-10-11_12h00.25.095,visual search experiement,2024.2.1post4,59.91816372083085,2024-10-11 12h00.36.614521 +0530,
21,0,21,[0.1775],[0.10916666666666666],[1],[0],[0],[1.1713234998751432],['target'],21,0,21,0,21.35857819998637,,5,21.33770320005715,21.35857819998637,21.35857819998637,0.018710799980908632,22.50949539989233,[0.1775],[0.10916666666666666],[1],[0],[0],[1.1713234998751432],['target'],127600,001,2024-10-11_12h00.25.095,visual search experiement,2024.2.1post4,59.91816372083085,2024-10-11 12h00.36.614521 +0530,
22,0,22,[-0.01],[-0.11666666666666667],[1],[0],[0],[1.053473399952054],['target'],22,0,22,0,22.549645100021735,,5,22.52994569996372,22.549645100021735,22.549645100021735,0.020188399823382497,23.58383829984814,[-0.01],[-0.11666666666666667],[1],[0],[0],[1.053473399952054],['target'],127600,001,2024-10-11_12h00.25.095,visual search experiement,2024.2.1post4,59.91816372083085,2024-10-11 12h00.36.614521 +0530,
23,0,23,[-0.1925],[-0.34],[1],[0],[0],[1.0667338999919593],['target'],23,0,23,0,23.632530799834058,,10,23.616514900000766,23.632530799834058,23.632530799834058,0.032471700105816126,24.68383209989406,[-0.1925],[-0.34],[1],[0],[0],[1.0667338999919593],['target'],127600,001,2024-10-11_12h00.25.095,visual search experiement,2024.2.1post4,59.91816372083085,2024-10-11 12h00.36.614521 +0530,
24,0,24,[-0.4033333333333333],[0.1],[1],[0],[0],[1.1671885999385267],['target'],24,0,24,0,24.733425399987027,,10,24.717291299952194,24.733425399987027,24.733425399987027,0.033245000056922436,25.88499669986777,[-0.4033333333333333],[0.1],[1],[0],[0],[1.1671885999385267],['target'],127600,001,2024-10-11_12h00.25.095,visual search experiement,2024.2.1post4,59.91816372083085,2024-10-11 12h00.36.614521 +0530,
25,0,25,[-0.44416666666666665],[-0.08916666666666667],[1],[0],[0],[0.746379799908027],['target'],25,0,25,0,25.91713729989715,,5,25.905484599992633,25.91713729989715,25.91713729989715,0.020159299951046705,26.652320199878886,[-0.44416666666666665],[-0.08916666666666667],[1],[0],[0],[0.746379799908027],['target'],127600,001,2024-10-11_12h00.25.095,visual search experiement,2024.2.1post4,59.91816372083085,2024-10-11 12h00.36.614521 +0530,
26,0,26,[-0.1925],[0.04083333333333333],[1],[0],[0],[0.9902683000545949],['target'],26,0,26,0,26.692474199924618,,5,26.669136199867353,26.692474199924618,26.692474199924618,0.01663349987939,27.659937599906698,[-0.1925],[0.04083333333333333],[1],[0],[0],[0.9902683000545949],['target'],127600,001,2024-10-11_12h00.25.095,visual search experiement,2024.2.1post4,59.91816372083085,2024-10-11 12h00.36.614521 +0530,
27,0,27,[-0.0925],[0.31],[1],[0],[0],[1.0248673998285085],['target'],27,0,27,0,27.700176799902692,,5,27.676258399849758,27.700176799902692,27.700176799902692,0.01613619993440807,28.701658899895847,[-0.0925],[0.31],[1],[0],[0],[1.0248673998285085],['target'],127600,001,2024-10-11_12h00.25.095,visual search experiement,2024.2.1post4,59.91816372083085,2024-10-11 12h00.36.614521 +0530,
28,0,28,[0.0825],[0.14583333333333334],[1],[0],[0],[0.9424644999671727],['target'],28,0,28,0,28.750275400001556,,10,28.73476010002196,28.750275400001556,28.750275400001556,0.03288369998335838,29.67776079988107,[0.0825],[0.14583333333333334],[1],[0],[0],[0.9424644999671727],['target'],127600,001,2024-10-11_12h00.25.095,visual search experiement,2024.2.1post4,59.91816372083085,2024-10-11 12h00.36.614521 +0530,
29,0,29,[-0.195],[-0.18],[1],[0],[0],[1.0298790000379086],['target'],29,0,29,0,29.707567099947482,,5,29.694939999841154,29.707567099947482,29.707567099947482,0.016939599998295307,30.72531310003251,[-0.195],[-0.18],[1],[0],[0],[1.0298790000379086],['target'],127600,001,2024-10-11_12h00.25.095,visual search experiement,2024.2.1post4,59.91816372083085,2024-10-11 12h00.36.614521 +0530,
30,0,30,[0.0075],[0.33916666666666667],[1],[0],[0],[1.40162910008803],['target'],30,0,30,0,30.774312099907547,,10,30.757701099850237,30.774312099907547,30.774312099907547,0.0322114999871701,32.15987570001744,[0.0075],[0.33916666666666667],[1],[0],[0],[1.40162910008803],['target'],127600,001,2024-10-11_12h00.25.095,visual search experiement,2024.2.1post4,59.91816372083085,2024-10-11 12h00.36.614521 +0530,
31,0,31,[-0.265],[-0.4741666666666667],[1],[0],[0],[2.1640774998813868],['target'],31,0,31,0,32.189887299900874,,5,32.17613329994492,32.189887299900874,32.189887299900874,0.016044599935412407,34.3407360999845,[-0.265],[-0.4741666666666667],[1],[0],[0],[2.1640774998813868],['target'],127600,001,2024-10-11_12h00.25.095,visual search experiement,2024.2.1post4,59.91816372083085,2024-10-11 12h00.36.614521 +0530,
32,0,32,[0.024166666666666666],[0.41333333333333333],[1],[0],[0],[1.0898158999625593],['target'],32,0,32,0,34.381000800058246,,5,34.357943699928,34.381000800058246,34.381000800058246,0.017035200027748942,35.448230099864304,[0.024166666666666666],[0.41333333333333333],[1],[0],[0],[1.0898158999625593],['target'],127600,001,2024-10-11_12h00.25.095,visual search experiement,2024.2.1post4,59.91816372083085,2024-10-11 12h00.36.614521 +0530,
33,0,33,[-0.4575],[-0.25416666666666665],[1],[0],[0],[1.2578188001643866],['target'],33,0,33,0,35.48842839989811,,5,35.46453689993359,35.48842839989811,35.48842839989811,0.01613060012459755,36.722885800059885,[-0.4575],[-0.25416666666666665],[1],[0],[0],[1.2578188001643866],['target'],127600,001,2024-10-11_12h00.25.095,visual search experiement,2024.2.1post4,59.91816372083085,2024-10-11 12h00.36.614521 +0530,
34,0,34,[-0.051666666666666666],[-0.21],[1],[0],[0],[0.9837991001550108],['target'],34,0,34,0,36.76283430005424,,5,36.739364200038835,36.76283430005424,36.76283430005424,0.016280299983918667,37.723607499850914,[-0.051666666666666666],[-0.21],[1],[0],[0],[0.9837991001550108],['target'],127600,001,2024-10-11_12h00.25.095,visual search experiement,2024.2.1post4,59.91816372083085,2024-10-11 12h00.36.614521 +0530,
35,0,35,[0.23166666666666666],[-0.2425],[1],[0],[0],[1.3643060999456793],['target'],35,0,35,0,37.753970299847424,,5,37.740310200024396,37.753970299847424,37.753970299847424,0.016522000078111887,39.105165499961004,[0.23166666666666666],[-0.2425],[1],[0],[0],[1.3643060999456793],['target'],127600,001,2024-10-11_12h00.25.095,visual search experiement,2024.2.1post4,59.91816372083085,2024-10-11 12h00.36.614521 +0530,
36,0,36,[-0.235],[0.49416666666666664],[1],[0],[0],[2.22080840007402],['target'],36,0,36,0,39.144831999903545,,5,39.123812600038946,39.144831999903545,39.144831999903545,0.018468899885192513,41.345087100053206,[-0.235],[0.49416666666666664],[1],[0],[0],[2.22080840007402],['target'],127600,001,2024-10-11_12h00.25.095,visual search experiement,2024.2.1post4,59.91816372083085,2024-10-11 12h00.36.614521 +0530,
37,0,37,[-0.09333333333333334],[0.009166666666666667],[1],[0],[0],[0.9506814999040216],['target'],37,0,37,0,41.39370119990781,,10,41.377166899852455,41.39370119990781,41.39370119990781,0.03186760004609823,42.32836769986898,[-0.09333333333333334],[0.009166666666666667],[1],[0],[0],[0.9506814999040216],['target'],127600,001,2024-10-11_12h00.25.095,visual search experiement,2024.2.1post4,59.91816372083085,2024-10-11 12h00.36.614521 +0530,
38,0,38,[-0.3441666666666667],[0.2791666666666667],[1],[0],[0],[1.3342442999128252],['target'],38,0,38,0,42.37719299993478,,10,42.36135599995032,42.37719299993478,42.37719299993478,0.03278340003453195,43.69605519995093,[-0.3441666666666667],[0.2791666666666667],[1],[0],[0],[1.3342442999128252],['target'],127600,001,2024-10-11_12h00.25.095,visual search experiement,2024.2.1post4,59.91816372083085,2024-10-11 12h00.36.614521 +0530,
39,0,39,[-0.195],[-0.3575],[1],[0],[0],[1.6139418999664485],['target'],39,0,39,0,43.72606899985112,,5,43.712460699956864,43.72606899985112,43.72606899985112,0.016187000088393688,45.326853199861944,[-0.195],[-0.3575],[1],[0],[0],[1.6139418999664485],['target'],127600,001,2024-10-11_12h00.25.095,visual search experiement,2024.2.1post4,59.91816372083085,2024-10-11 12h00.36.614521 +0530,
40,0,40,[-0.5133333333333333],[0.26666666666666666],[1],[0],[0],[1.1073723000008613],['target'],40,0,40,0,45.36704399995506,,5,45.34343059989624,45.36704399995506,45.36704399995506,0.016405000118538737,46.45122669986449,[-0.5133333333333333],[0.26666666666666666],[1],[0],[0],[1.1073723000008613],['target'],127600,001,2024-10-11_12h00.25.095,visual search experiement,2024.2.1post4,59.91816372083085,2024-10-11 12h00.36.614521 +0530,
41,0,41,[-0.32083333333333336],[-0.22833333333333333],[1],[0],[0],[1.2885892000049353],['target'],41,0,41,0,46.491311399964616,,5,46.469702099915594,46.491311399964616,46.491311399964616,0.018283999990671873,47.758769899839535,[-0.32083333333333336],[-0.22833333333333333],[1],[0],[0],[1.2885892000049353],['target'],127600,001,2024-10-11_12h00.25.095,visual search experiement,2024.2.1post4,59.91816372083085,2024-10-11 12h00.36.614521 +0530,
42,0,42,[-0.4741666666666667],[-0.37666666666666665],[1],[0],[0],[1.2350041000172496],['target'],42,0,42,0,47.80767849995755,,10,47.79140409990214,47.80767849995755,47.80767849995755,0.03243550006300211,49.02690319996327,[-0.4741666666666667],[-0.37666666666666665],[1],[0],[0],[1.2350041000172496],['target'],127600,001,2024-10-11_12h00.25.095,visual search experiement,2024.2.1post4,59.91816372083085,2024-10-11 12h00.36.614521 +0530,
43,0,43,[0.4683333333333333],[-0.10833333333333334],[1],[0],[0],[1.5306595000438392],['target'],43,0,43,0,49.05772659997456,,5,49.043253700016066,49.05772659997456,49.05772659997456,0.016142599983140826,50.57442960003391,[0.4683333333333333],[-0.10833333333333334],[1],[0],[0],[1.5306595000438392],['target'],127600,001,2024-10-11_12h00.25.095,visual search experiement,2024.2.1post4,59.91816372083085,2024-10-11 12h00.36.614521 +0530,
44,0,44,[-0.045],[0.31583333333333335],[1],[0],[0],[1.398961199913174],['target'],44,0,44,0,50.62200720002875,,10,50.606754099950194,50.62200720002875,50.62200720002875,0.03211540007032454,52.00617780000903,[-0.045],[0.31583333333333335],[1],[0],[0],[1.398961199913174],['target'],127600,001,2024-10-11_12h00.25.095,visual search experiement,2024.2.1post4,59.91816372083085,2024-10-11 12h00.36.614521 +0530,
45,0,45,[-0.06916666666666667],[0.0875],[1],[0],[0],[0.9830200998112559],['target'],45,0,45,0,52.05388959986158,,10,52.03817509999499,52.05388959986158,52.05388959986158,0.03179290005937219,53.02170789986849,[-0.06916666666666667],[0.0875],[1],[0],[0],[0.9830200998112559],['target'],127600,001,2024-10-11_12h00.25.095,visual search experiement,2024.2.1post4,59.91816372083085,2024-10-11 12h00.36.614521 +0530,
46,0,46,[-0.375],[-0.21666666666666667],[1],[0],[0],[1.0965189998969436],['target'],46,0,46,0,53.08739429991692,,10,53.05707779992372,53.08739429991692,53.08739429991692,0.03516460000537336,54.15420979983173,[-0.375],[-0.21666666666666667],[1],[0],[0],[1.0965189998969436],['target'],127600,001,2024-10-11_12h00.25.095,visual search experiement,2024.2.1post4,59.91816372083085,2024-10-11 12h00.36.614521 +0530,
47,0,47,[-0.1575],[-0.43166666666666664],[1],[0],[0],[0.9659174999687821],['target'],47,0,47,0,54.194093300029635,,5,54.17310899985023,54.194093300029635,54.194093300029635,0.01869299984537065,55.13972430001013,[-0.1575],[-0.43166666666666664],[1],[0],[0],[0.9659174999687821],['target'],127600,001,2024-10-11_12h00.25.095,visual search experiement,2024.2.1post4,59.91816372083085,2024-10-11 12h00.36.614521 +0530,
48,0,48,[-0.009166666666666667],[0.4116666666666667],[1],[0],[0],[1.544109100010246],['target'],48,0,48,0,55.16881149983965,,5,55.158616199856624,55.16881149983965,55.16881149983965,0.018692399840801954,56.703204500023276,[-0.009166666666666667],[0.4116666666666667],[1],[0],[0],[1.544109100010246],['target'],127600,001,2024-10-11_12h00.25.095,visual search experiement,2024.2.1post4,59.91816372083085,2024-10-11 12h00.36.614521 +0530,
49,0,49,[-0.03833333333333333],[-0.4008333333333333],[1],[0],[0],[1.165947699919343],['target'],49,0,49,0,56.75070029986091,,10,56.73456300003454,56.75070029986091,56.75070029986091,0.031141200102865696,57.90097810002044,[-0.03833333333333333],[-0.4008333333333333],[1],[0],[0],[1.165947699919343],['target'],127600,001,2024-10-11_12h00.25.095,visual search experiement,2024.2.1post4,59.91816372083085,2024-10-11 12h00.36.614521 +0530,
50,0,50,[-0.1775],[0.13166666666666665],[1],[0],[0],[1.1796939000487328],['target'],50,0,50,0,57.96707009989768,,10,57.93752250005491,57.96707009989768,57.96707009989768,0.03629349987022579,59.1177925998345,[-0.1775],[0.13166666666666665],[1],[0],[0],[1.1796939000487328],['target'],127600,001,2024-10-11_12h00.25.095,visual search experiement,2024.2.1post4,59.91816372083085,2024-10-11 12h00.36.614521 +0530,
51,0,51,[0.4083333333333333],[-0.25833333333333336],[1],[0],[0],[1.8999197999946773],['target'],51,0,51,0,59.16495719994418,,10,59.14896490005776,59.16495719994418,59.16495719994418,0.030967800179496408,61.049429199891165,[0.4083333333333333],[-0.25833333333333336],[1],[0],[0],[1.8999197999946773],['target'],127600,001,2024-10-11_12h00.25.095,visual search experiement,2024.2.1post4,59.91816372083085,2024-10-11 12h00.36.614521 +0530,
52,0,52,[-0.17833333333333334],[0.36833333333333335],[1],[0],[0],[1.0662478001322597],['target'],52,0,52,0,61.09740790002979,,10,61.08190830005333,61.09740790002979,61.09740790002979,0.032275599893182516,62.148633799981326,[-0.17833333333333334],[0.36833333333333335],[1],[0],[0],[1.0662478001322597],['target'],127600,001,2024-10-11_12h00.25.095,visual search experiement,2024.2.1post4,59.91816372083085,2024-10-11 12h00.36.614521 +0530,
53,0,53,[-0.1575],[0.375],[1],[0],[0],[1.2230062999296933],['target'],53,0,53,0,62.18826269987039,,5,62.16663650004193,62.18826269987039,62.18826269987039,0.017798500135540962,63.39019189984538,[-0.1575],[0.375],[1],[0],[0],[1.2230062999296933],['target'],127600,001,2024-10-11_12h00.25.095,visual search experiement,2024.2.1post4,59.91816372083085,2024-10-11 12h00.36.614521 +0530,
54,0,54,[-0.3175],[-0.03833333333333333],[1],[0],[0],[0.9514260001014918],['target'],54,0,54,0,63.43820949993096,,10,63.42210389999673,63.43820949993096,63.43820949993096,0.03169739991426468,64.37402520002797,[-0.3175],[-0.03833333333333333],[1],[0],[0],[0.9514260001014918],['target'],127600,001,2024-10-11_12h00.25.095,visual search experiement,2024.2.1post4,59.91816372083085,2024-10-11 12h00.36.614521 +0530,
55,0,55,[0.18583333333333332],[0.1775],[1],[0],[0],[0.9795985999517143],['target'],55,0,55,0,64.40407759998925,,5,64.3926965999417,64.40407759998925,64.40407759998925,0.018404100090265274,65.37271739984863,[0.18583333333333332],[0.1775],[1],[0],[0],[0.9795985999517143],['target'],127600,001,2024-10-11_12h00.25.095,visual search experiement,2024.2.1post4,59.91816372083085,2024-10-11 12h00.36.614521 +0530,
56,0,56,[-0.39666666666666667],[-0.44916666666666666],[1],[0],[0],[2.0159974000416696],['target'],56,0,56,0,65.4201396999415,,10,65.40427179983817,65.4201396999415,65.4201396999415,0.03138060006313026,67.42073719995096,[-0.39666666666666667],[-0.44916666666666666],[1],[0],[0],[2.0159974000416696],['target'],127600,001,2024-10-11_12h00.25.095,visual search experiement,2024.2.1post4,59.91816372083085,2024-10-11 12h00.36.614521 +0530,
57,0,57,[0.2525],[0.465],[1],[0],[0],[2.538025600137189],['target'],57,0,57,0,67.46063950005919,,5,67.43941610003822,67.46063950005919,67.46063950005919,0.01844180002808571,69.97790639987215,[0.2525],[0.465],[1],[0],[0],[2.538025600137189],['target'],127600,001,2024-10-11_12h00.25.095,visual search experiement,2024.2.1post4,59.91816372083085,2024-10-11 12h00.36.614521 +0530,
58,0,58,[-0.09],[0.21666666666666667],[1],[0],[0],[1.4332661000080407],['target'],58,0,58,0,70.02586489985697,,10,70.00977809983306,70.02586489985697,70.02586489985697,0.03167710010893643,71.44345250003971,[-0.09],[0.21666666666666667],[1],[0],[0],[1.4332661000080407],['target'],127600,001,2024-10-11_12h00.25.095,visual search experiement,2024.2.1post4,59.91816372083085,2024-10-11 12h00.36.614521 +0530,
59,0,59,[0.10083333333333333],[-0.18083333333333335],[1],[0],[0],[1.3161829998716712],['target'],59,0,59,0,71.49095209990628,,10,71.47556509985588,71.49095209990628,71.49095209990628,0.031889700097963214,72.79226120002568,[0.10083333333333333],[-0.18083333333333335],[1],[0],[0],[1.3161829998716712],['target'],127600,001,2024-10-11_12h00.25.095,visual search experiement,2024.2.1post4,59.91816372083085,2024-10-11 12h00.36.614521 +0530,
60,0,60,[0.10083333333333333],[-0.18083333333333335],[0],[0],[1],[0.9833656998816878],[None],60,0,60,0,72.84032319998369,,10,72.8242380998563,72.84032319998369,72.84032319998369,0.03165009990334511,73.80817069998011,[0.10083333333333333],[-0.18083333333333335],[0],[0],[1],[0.9833656998816878],[None],127600,001,2024-10-11_12h00.25.095,visual search experiement,2024.2.1post4,59.91816372083085,2024-10-11 12h00.36.614521 +0530,
61,0,61,[0.10083333333333333],[-0.18083333333333335],[0],[0],[1],[0.12445489992387593],[None],61,0,61,0,73.84845039993525,,5,73.82520399987698,73.84845039993525,73.84845039993525,0.016694099875167012,73.95020349998958,[0.10083333333333333],[-0.18083333333333335],[0],[0],[1],[0.12445489992387593],[None],127600,001,2024-10-11_12h00.25.095,visual search experiement,2024.2.1post4,59.91816372083085,2024-10-11 12h00.36.614521 +0530,
62,0,62,[0.10083333333333333],[-0.18083333333333335],[0],[0],[1],[0.12356709991581738],[None],62,0,62,0,73.9900751998648,,5,73.9668816998601,73.9900751998648,73.9900751998648,0.01649930002167821,74.09091689996421,[0.10083333333333333],[-0.18083333333333335],[0],[0],[1],[0.12356709991581738],[None],127600,001,2024-10-11_12h00.25.095,visual search experiement,2024.2.1post4,59.91816372083085,2024-10-11 12h00.36.614521 +0530,
63,0,63,[0.10083333333333333],[-0.18083333333333335],[0],[0],[1],[0.1246271999552846],[None],63,0,63,0,74.13126980001107,,5,74.1078017000109,74.13126980001107,74.13126980001107,0.016739800106734037,74.23295670002699,[0.10083333333333333],[-0.18083333333333335],[0],[0],[1],[0.1246271999552846],[None],127600,001,2024-10-11_12h00.25.095,visual search experiement,2024.2.1post4,59.91816372083085,2024-10-11 12h00.36.614521 +0530,
64,0,64,[0.10083333333333333],[-0.18083333333333335],[0],[0],[1],[0.14057819987647235],[None],64,0,64,0,74.27320989989676,,5,74.25002519995905,74.27320989989676,74.27320989989676,0.01686670002527535,74.39103299984708,[0.10083333333333333],[-0.18083333333333335],[0],[0],[1],[0.14057819987647235],[None],127600,001,2024-10-11_12h00.25.095,visual search experiement,2024.2.1post4,59.91816372083085,2024-10-11 12h00.36.614521 +0530,
65,0,65,[0.10083333333333333],[-0.18083333333333335],[0],[0],[1],[0.05249019991606474],[None],65,0,65,0,74.4404094000347,,10,74.42390499985777,74.4404094000347,74.4404094000347,0.03278889995999634,74.47678070003167,[0.10083333333333333],[-0.18083333333333335],[0],[0],[1],[0.05249019991606474],[None],127600,001,2024-10-11_12h00.25.095,visual search experiement,2024.2.1post4,59.91816372083085,2024-10-11 12h00.36.614521 +0530,
66,0,66,[0.10083333333333333],[-0.18083333333333335],[0],[0],[1],[0.0892578000202775],[None],66,0,66,0,74.5315165000502,,10,74.50999599997886,74.5315165000502,74.5315165000502,0.03303000004962087,74.59972329996526,[0.10083333333333333],[-0.18083333333333335],[0],[0],[1],[0.0892578000202775],[None],127600,001,2024-10-11_12h00.25.095,visual search experiement,2024.2.1post4,59.91816372083085,2024-10-11 12h00.36.614521 +0530,
67,0,67,[0.165],[-0.2425],[1],[0],[0],[1.4771372999530286],[None],67,0,67,0,74.66447829990648,,10,74.63852289994247,74.66447829990648,74.66447829990648,0.038552300073206425,76.11621559993364,[0.165],[-0.2425],[1],[0],[0],[1.4771372999530286],[None],127600,001,2024-10-11_12h00.25.095,visual search experiement,2024.2.1post4,59.91816372083085,2024-10-11 12h00.36.614521 +0530,
68,0,68,[0.4225],[-0.18333333333333332],[1],[0],[0],[1.851794899906963],['target'],68,0,68,0,76.16456969990395,,10,76.14829949988052,76.16456969990395,76.16456969990395,0.031865600030869246,78.00061889993958,[0.4225],[-0.18333333333333332],[1],[0],[0],[1.851794899906963],['target'],127600,001,2024-10-11_12h00.25.095,visual search experiement,2024.2.1post4,59.91816372083085,2024-10-11 12h00.36.614521 +0530,
69,0,69,[-0.4741666666666667],[-0.42916666666666664],[1],[0],[0],[1.1972284999210387],['target'],69,0,69,0,78.02996029984206,,5,78.01670929999091,78.02996029984206,78.02996029984206,0.01588750001974404,79.21440070006065,[-0.4741666666666667],[-0.42916666666666664],[1],[0],[0],[1.1972284999210387],['target'],127600,001,2024-10-11_12h00.25.095,visual search experiement,2024.2.1post4,59.91816372083085,2024-10-11 12h00.36.614521 +0530,
70,0,70,[0.31416666666666665],[-0.09],[1],[0],[0],[2.033140500076115],['target'],70,0,70,0,79.2640835000202,,10,79.24874760000966,79.2640835000202,79.2640835000202,0.03415410011075437,81.28234839998186,[0.31416666666666665],[-0.09],[1],[0],[0],[2.033140500076115],['target'],127600,001,2024-10-11_12h00.25.095,visual search experiement,2024.2.1post4,59.91816372083085,2024-10-11 12h00.36.614521 +0530,
71,0,71,[-0.28833333333333333],[0.44333333333333336],[1],[0],[0],[2.496573399985209],['target'],71,0,71,0,81.31199339986779,,5,81.2990125999786,81.31199339986779,81.31199339986779,0.01645289990119636,83.79615109995939,[-0.28833333333333333],[0.44333333333333336],[1],[0],[0],[2.496573399985209],['target'],127600,001,2024-10-11_12h00.25.095,visual search experiement,2024.2.1post4,59.91816372083085,2024-10-11 12h00.36.614521 +0530,
72,0,72,[-0.4083333333333333],[-0.2775],[1],[0],[0],[1.1237216999288648],['target'],72,0,72,0,83.83578710001893,,5,83.81287959986366,83.83578710001893,83.83578710001893,0.01648559980094433,84.9371907999739,[-0.4083333333333333],[-0.2775],[1],[0],[0],[1.1237216999288648],['target'],127600,001,2024-10-11_12h00.25.095,visual search experiement,2024.2.1post4,59.91816372083085,2024-10-11 12h00.36.614521 +0530,
73,0,73,[0.06666666666666667],[-0.44583333333333336],[1],[0],[0],[1.6669436001684517],['target'],73,0,73,0,84.9873567998875,,10,84.97146110003814,84.9873567998875,84.9873567998875,0.034057100070640445,86.63885900005698,[0.06666666666666667],[-0.44583333333333336],[1],[0],[0],[1.6669436001684517],['target'],127600,001,2024-10-11_12h00.25.095,visual search experiement,2024.2.1post4,59.91816372083085,2024-10-11 12h00.36.614521 +0530,
74,0,74,[0.4],[0.15416666666666667],[1],[0],[0],[2.2673837998881936],['target'],74,0,74,0,86.69533839984797,,10,86.67794319987297,86.69533839984797,86.69533839984797,0.0388329999987036,88.94577579991892,[0.4],[0.15416666666666667],[1],[0],[0],[2.2673837998881936],['target'],127600,001,2024-10-11_12h00.25.095,visual search experiement,2024.2.1post4,59.91816372083085,2024-10-11 12h00.36.614521 +0530,
75,0,75,[0.45416666666666666],[0.050833333333333335],[1],[0],[0],[1.5410886001773179],['target'],75,0,75,0,88.9866152999457,,5,88.96190420002677,88.9866152999457,88.9866152999457,0.015888000139966607,90.50343229994178,[0.45416666666666666],[0.050833333333333335],[1],[0],[0],[1.5410886001773179],['target'],127600,001,2024-10-11_12h00.25.095,visual search experiement,2024.2.1post4,59.91816372083085,2024-10-11 12h00.36.614521 +0530,
76,0,76,[-0.16],[0.095],[1],[0],[0],[1.1161360999103636],['target'],76,0,76,0,90.55190499988385,,10,90.53519580001011,90.55190499988385,90.55190499988385,0.03156809997744858,91.65181299997494,[-0.16],[0.095],[1],[0],[0],[1.1161360999103636],['target'],127600,001,2024-10-11_12h00.25.095,visual search experiement,2024.2.1post4,59.91816372083085,2024-10-11 12h00.36.614521 +0530,
77,0,77,[0.03833333333333333],[0.43],[1],[0],[0],[1.0898661999963224],['target'],77,0,77,0,91.69205569988117,,5,91.6694505000487,91.69205569988117,91.69205569988117,0.01743100001476705,92.75974979996681,[0.03833333333333333],[0.43],[1],[0],[0],[1.0898661999963224],['target'],127600,001,2024-10-11_12h00.25.095,visual search experiement,2024.2.1post4,59.91816372083085,2024-10-11 12h00.36.614521 +0530,
78,0,78,[-0.25666666666666665],[-0.09666666666666666],[1],[0],[0],[1.183118399931118],['target'],78,0,78,0,92.80809389986098,,10,92.791879999917,92.80809389986098,92.80809389986098,0.03195680002681911,93.97546619991772,[-0.25666666666666665],[-0.09666666666666666],[1],[0],[0],[1.183118399931118],['target'],127600,001,2024-10-11_12h00.25.095,visual search experiement,2024.2.1post4,59.91816372083085,2024-10-11 12h00.36.614521 +0530,
79,0,79,[-0.04583333333333333],[-0.4375],[1],[0],[0],[1.4175059001427144],['target'],79,0,79,0,94.02365199988708,,10,94.00701339985244,94.02365199988708,94.02365199988708,0.03132569999434054,95.42506649997085,[-0.04583333333333333],[-0.4375],[1],[0],[0],[1.4175059001427144],['target'],127600,001,2024-10-11_12h00.25.095,visual search experiement,2024.2.1post4,59.91816372083085,2024-10-11 12h00.36.614521 +0530,
80,0,80,[0.2758333333333333],[-0.16],[1],[0],[0],[1.1737625999376178],['target'],80,0,80,0,95.46500630001538,,5,95.44157240004279,95.46500630001538,95.46500630001538,0.016288000158965588,96.61581319989637,[0.2758333333333333],[-0.16],[1],[0],[0],[1.1737625999376178],['target'],127600,001,2024-10-11_12h00.25.095,visual search experiement,2024.2.1post4,59.91816372083085,2024-10-11 12h00.36.614521 +0530,
81,0,81,[0.44666666666666666],[-0.30833333333333335],[1],[0],[0],[2.1495840998832136],['target'],81,0,81,0,96.66386829991825,,10,96.64756609988399,96.66386829991825,96.66386829991825,0.03153579984791577,98.7976130999159,[0.44666666666666666],[-0.30833333333333335],[1],[0],[0],[2.1495840998832136],['target'],127600,001,2024-10-11_12h00.25.095,visual search experiement,2024.2.1post4,59.91816372083085,2024-10-11 12h00.36.614521 +0530,
82,0,82,[-0.35],[0.1],[1],[0],[0],[1.3005011000204831],['target'],82,0,82,0,98.84562260005623,,10,98.82918590004556,98.84562260005623,98.84562260005623,0.03134149988181889,100.13015490001999,[-0.35],[0.1],[1],[0],[0],[1.3005011000204831],['target'],127600,001,2024-10-11_12h00.25.095,visual search experiement,2024.2.1post4,59.91816372083085,2024-10-11 12h00.36.614521 +0530,
83,0,83,[-0.14666666666666667],[0.2966666666666667],[1],[0],[0],[1.09984129993245],['target'],83,0,83,0,100.17767599993385,,10,100.16118769999593,100.17767599993385,100.17767599993385,0.03083240007981658,101.26151870004833,[-0.14666666666666667],[0.2966666666666667],[1],[0],[0],[1.09984129993245],['target'],127600,001,2024-10-11_12h00.25.095,visual search experiement,2024.2.1post4,59.91816372083085,2024-10-11 12h00.36.614521 +0530,
84,0,84,[0.0425],[0.4058333333333333],[1],[0],[0],[2.617671199841425],['target'],84,0,84,0,101.30202810000628,,5,101.27777739986777,101.30202810000628,101.30202810000628,0.016039000125601888,103.89606719999574,[0.0425],[0.4058333333333333],[1],[0],[0],[2.617671199841425],['target'],127600,001,2024-10-11_12h00.25.095,visual search experiement,2024.2.1post4,59.91816372083085,2024-10-11 12h00.36.614521 +0530,
85,0,85,[0.16416666666666666],[0.4375],[1],[0],[0],[0.9566317999269813],['target'],85,0,85,0,103.95075719989836,,10,103.92754429997876,103.95075719989836,103.95075719989836,0.031256800051778555,104.88463620003313,[0.16416666666666666],[0.4375],[1],[0],[0],[0.9566317999269813],['target'],127600,001,2024-10-11_12h00.25.095,visual search experiement,2024.2.1post4,59.91816372083085,2024-10-11 12h00.36.614521 +0530,
86,0,86,[-0.5016666666666667],[0.23083333333333333],[1],[0],[0],[4.374642400071025],['target'],86,0,86,0,104.92538969987072,,5,104.90140109998174,104.92538969987072,104.92538969987072,0.016558100003749132,109.2765756000299,[-0.5016666666666667],[0.23083333333333333],[1],[0],[0],[4.374642400071025],['target'],127600,001,2024-10-11_12h00.25.095,visual search experiement,2024.2.1post4,59.91816372083085,2024-10-11 12h00.36.614521 +0530,
87,0,87,[-0.3875],[-0.3433333333333333],[1],[0],[0],[1.6553281999658793],['target'],87,0,87,0,109.33162329997867,,10,109.3094363999553,109.33162329997867,109.33162329997867,0.032688300125300884,110.96523629990406,[-0.3875],[-0.3433333333333333],[1],[0],[0],[1.6553281999658793],['target'],127600,001,2024-10-11_12h00.25.095,visual search experiement,2024.2.1post4,59.91816372083085,2024-10-11 12h00.36.614521 +0530,
88,0,88,[0.27166666666666667],[0.18416666666666667],[1],[0],[0],[1.359136699931696],['target'],88,0,88,0,111.00601030001417,,5,110.98140829987824,111.00601030001417,111.00601030001417,0.015928899869322777,112.34111649985425,[0.27166666666666667],[0.18416666666666667],[1],[0],[0],[1.359136699931696],['target'],127600,001,2024-10-11_12h00.25.095,visual search experiement,2024.2.1post4,59.91816372083085,2024-10-11 12h00.36.614521 +0530,
89,0,89,[-0.035],[-0.39666666666666667],[1],[0],[0],[1.2335297998506576],['target'],89,0,89,0,112.38122570002452,,5,112.35730109992437,112.38122570002452,112.38122570002452,0.016009500017389655,113.59134549996816,[-0.035],[-0.39666666666666667],[1],[0],[0],[1.2335297998506576],['target'],127600,001,2024-10-11_12h00.25.095,visual search experiement,2024.2.1post4,59.91816372083085,2024-10-11 12h00.36.614521 +0530,
90,0,90,[0.04083333333333333],[-0.38416666666666666],[1],[0],[0],[0.8475060001946986],['target'],90,0,90,0,113.62165750004351,,5,113.6078031999059,113.62165750004351,113.62165750004351,0.016271899919956923,114.45575540000573,[0.04083333333333333],[-0.38416666666666666],[1],[0],[0],[0.8475060001946986],['target'],127600,001,2024-10-11_12h00.25.095,visual search experiement,2024.2.1post4,59.91816372083085,2024-10-11 12h00.36.614521 +0530,
91,0,91,[0.14],[-0.005],[1],[0],[0],[1.4169600999448448],['target'],91,0,91,0,114.5055841000285,,10,114.49042439996265,114.5055841000285,114.5055841000285,0.034481200156733394,115.90789359994233,[0.14],[-0.005],[1],[0],[0],[1.4169600999448448],['target'],127600,001,2024-10-11_12h00.25.095,visual search experiement,2024.2.1post4,59.91816372083085,2024-10-11 12h00.36.614521 +0530,
92,0,92,[-0.07333333333333333],[0.38333333333333336],[1],[0],[0],[1.4734374999534339],['target'],92,0,92,0,115.93747529992834,,5,115.92448849999346,115.93747529992834,115.93747529992834,0.01638629985973239,117.39845469989814,[-0.07333333333333333],[0.38333333333333336],[1],[0],[0],[1.4734374999534339],['target'],127600,001,2024-10-11_12h00.25.095,visual search experiement,2024.2.1post4,59.91816372083085,2024-10-11 12h00.36.614521 +0530,
93,0,93,[0.010833333333333334],[0.4866666666666667],[1],[0],[0],[2.205044699832797],['target'],93,0,93,0,117.4527620000299,,10,117.43169899983332,117.4527620000299,117.4527620000299,0.033015199936926365,119.63736509997398,[0.010833333333333334],[0.4866666666666667],[1],[0],[0],[2.205044699832797],['target'],127600,001,2024-10-11_12h00.25.095,visual search experiement,2024.2.1post4,59.91816372083085,2024-10-11 12h00.36.614521 +0530,
94,0,94,[0.010833333333333334],[0.4866666666666667],[0],[0],[1],[1.232869500061497],[None],94,0,94,0,119.68594609992579,,10,119.66944049997255,119.68594609992579,119.68594609992579,0.031754600116983056,120.90274199983105,[0.010833333333333334],[0.4866666666666667],[0],[0],[1],[1.232869500061497],[None],127600,001,2024-10-11_12h00.25.095,visual search experiement,2024.2.1post4,59.91816372083085,2024-10-11 12h00.36.614521 +0530,
95,0,95,[0.010833333333333334],[0.4866666666666667],[0],[0],[1],[0.2024793999735266],[None],95,0,95,0,120.95262730005197,,10,120.93698580004275,120.95262730005197,120.95262730005197,0.03404389997012913,121.14007359999232,[0.010833333333333334],[0.4866666666666667],[0],[0],[1],[0.2024793999735266],[None],127600,001,2024-10-11_12h00.25.095,visual search experiement,2024.2.1post4,59.91816372083085,2024-10-11 12h00.36.614521 +0530,
96,0,96,[0.010833333333333334],[0.4866666666666667],[0],[0],[1],[0.20453829993493855],[None],96,0,96,0,121.19315319997258,,10,121.17332139983773,121.19315319997258,121.19315319997258,0.0330335998442024,121.3783672999125,[0.010833333333333334],[0.4866666666666667],[0],[0],[1],[0.20453829993493855],[None],127600,001,2024-10-11_12h00.25.095,visual search experiement,2024.2.1post4,59.91816372083085,2024-10-11 12h00.36.614521 +0530,
97,0,97,[0.010833333333333334],[0.4866666666666667],[0],[0],[1],[0.22359269997105002],[None],97,0,97,0,121.41770399990492,,5,121.39543979987502,121.41770399990492,121.41770399990492,0.016831699991598725,121.61945530003868,[0.010833333333333334],[0.4866666666666667],[0],[0],[1],[0.22359269997105002],[None],127600,001,2024-10-11_12h00.25.095,visual search experiement,2024.2.1post4,59.91816372083085,2024-10-11 12h00.36.614521 +0530,
98,0,98,[0.4583333333333333],[-0.15583333333333332],[1],[0],[0],[1.4742358999792486],['target'],98,0,98,0,121.65931560005993,,5,121.63592489995062,121.65931560005993,121.65931560005993,0.01629170007072389,123.11071829986759,[0.4583333333333333],[-0.15583333333333332],[1],[0],[0],[1.4742358999792486],['target'],127600,001,2024-10-11_12h00.25.095,visual search experiement,2024.2.1post4,59.91816372083085,2024-10-11 12h00.36.614521 +0530,
99,0,99,[0.12666666666666668],[0.4225],[1],[0],[0],[1.540424499893561],['target'],99,0,99,0,123.1503693999257,,5,123.12719639996067,123.1503693999257,123.1503693999257,0.016272000037133694,124.66816490003839,[0.12666666666666668],[0.4225],[1],[0],[0],[1.540424499893561],['target'],127600,001,2024-10-11_12h00.25.095,visual search experiement,2024.2.1post4,59.91816372083085,2024-10-11 12h00.36.614521 +0530,
100,0,100,[-0.029166666666666667],[0.17166666666666666],[1],[0],[0],[0.9585192000959069],['target'],100,0,100,0,124.70828110002913,,5,124.68412179988809,124.70828110002913,124.70828110002913,0.015779600013047457,125.64319299999624,[-0.029166666666666667],[0.17166666666666666],[1],[0],[0],[0.9585192000959069],['target'],127600,001,2024-10-11_12h00.25.095,visual search experiement,2024.2.1post4,59.91816372083085,2024-10-11 12h00.36.614521 +0530,
101,0,101,[0.3016666666666667],[0.18583333333333332],[1],[0],[0],[1.1402447000145912],['target'],101,0,101,0,125.68352029984817,,5,125.65951909986325,125.68352029984817,125.68352029984817,0.01607809984125197,126.80020529986359,[0.3016666666666667],[0.18583333333333332],[1],[0],[0],[1.1402447000145912],['target'],127600,001,2024-10-11_12h00.25.095,visual search experiement,2024.2.1post4,59.91816372083085,2024-10-11 12h00.36.614521 +0530,
102,0,102,[-0.4225],[-0.38416666666666666],[1],[0],[0],[1.5507954000495374],['target'],102,0,102,0,126.84825629997067,,10,126.83227450004779,126.84825629997067,126.84825629997067,0.031885400181636214,128.38367110001855,[-0.4225],[-0.38416666666666666],[1],[0],[0],[1.5507954000495374],['target'],127600,001,2024-10-11_12h00.25.095,visual search experiement,2024.2.1post4,59.91816372083085,2024-10-11 12h00.36.614521 +0530,
103,0,103,[-0.43],[-0.28583333333333333],[1],[0],[0],[0.9696943999733776],['target'],103,0,103,0,128.43149579991587,,10,128.41554769990034,128.43149579991587,128.43149579991587,0.03160970006138086,129.38584390003234,[-0.43],[-0.28583333333333333],[1],[0],[0],[0.9696943999733776],['target'],127600,001,2024-10-11_12h00.25.095,visual search experiement,2024.2.1post4,59.91816372083085,2024-10-11 12h00.36.614521 +0530,
104,0,104,[-0.24583333333333332],[0.2841666666666667],[1],[0],[0],[1.5291331000626087],['target'],104,0,104,0,129.41392809990793,,5,129.40204739989713,129.41392809990793,129.41392809990793,0.015993000008165836,130.93164910003543,[-0.24583333333333332],[0.2841666666666667],[1],[0],[0],[1.5291331000626087],['target'],127600,001,2024-10-11_12h00.25.095,visual search experiement,2024.2.1post4,59.91816372083085,2024-10-11 12h00.36.614521 +0530,
105,0,105,[0.4891666666666667],[-0.45416666666666666],[1],[0],[0],[2.149861400015652],['target'],105,0,105,0,130.9794896999374,,10,130.96337969996966,130.9794896999374,130.9794896999374,0.0315569001249969,133.11374079994857,[0.4891666666666667],[-0.45416666666666666],[1],[0],[0],[2.149861400015652],['target'],127600,001,2024-10-11_12h00.25.095,visual search experiement,2024.2.1post4,59.91816372083085,2024-10-11 12h00.36.614521 +0530,
106,0,106,[0.49083333333333334],[0.09416666666666666],[1],[0],[0],[1.6574017000384629],['target'],106,0,106,0,133.153733599931,,5,133.13015690003522,133.153733599931,133.153733599931,0.01616539992392063,134.78802099986933,[0.49083333333333334],[0.09416666666666666],[1],[0],[0],[1.6574017000384629],['target'],127600,001,2024-10-11_12h00.25.095,visual search experiement,2024.2.1post4,59.91816372083085,2024-10-11 12h00.36.614521 +0530,
107,0,107,[0.24583333333333332],[0.08833333333333333],[1],[0],[0],[1.1571303000673652],['target'],107,0,107,0,134.82796599995345,,5,134.80488369986415,134.82796599995345,134.82796599995345,0.01668829983100295,135.9624460998457,[0.24583333333333332],[0.08833333333333333],[1],[0],[0],[1.1571303000673652],['target'],127600,001,2024-10-11_12h00.25.095,visual search experiement,2024.2.1post4,59.91816372083085,2024-10-11 12h00.36.614521 +0530,
108,0,108,[0.3433333333333333],[-0.07],[1],[0],[0],[0.9406783999875188],['target'],108,0,108,0,136.0032078998629,,5,135.97887669992633,136.0032078998629,136.0032078998629,0.016255199909210205,136.92002759990282,[0.3433333333333333],[-0.07],[1],[0],[0],[0.9406783999875188],['target'],127600,001,2024-10-11_12h00.25.095,visual search experiement,2024.2.1post4,59.91816372083085,2024-10-11 12h00.36.614521 +0530,
109,0,109,[-0.19],[-0.39],[1],[0],[0],[2.1097780000418425],['target'],109,0,109,0,136.96753160003573,,10,136.9520481999498,136.96753160003573,136.96753160003573,0.03182179993018508,139.06227470003068,[-0.19],[-0.39],[1],[0],[0],[2.1097780000418425],['target'],127600,001,2024-10-11_12h00.25.095,visual search experiement,2024.2.1post4,59.91816372083085,2024-10-11 12h00.36.614521 +0530,
110,0,110,[0.2725],[-0.36583333333333334],[1],[0],[0],[1.147374500054866],['target'],110,0,110,0,139.09240600001067,,5,139.07855269988067,139.09240600001067,139.09240600001067,0.016069100005552173,140.22643169993535,[0.2725],[-0.36583333333333334],[1],[0],[0],[1.147374500054866],['target'],127600,001,2024-10-11_12h00.25.095,visual search experiement,2024.2.1post4,59.91816372083085,2024-10-11 12h00.36.614521 +0530,
111,0,111,[0.08083333333333333],[-0.3883333333333333],[1],[0],[0],[1.0073122000321746],['target'],111,0,111,0,140.26707079983316,,5,140.24314619996585,140.26707079983316,140.26707079983316,0.01653790008276701,141.25099369999953,[0.08083333333333333],[-0.3883333333333333],[1],[0],[0],[1.0073122000321746],['target'],127600,001,2024-10-11_12h00.25.095,visual search experiement,2024.2.1post4,59.91816372083085,2024-10-11 12h00.36.614521 +0530,
112,0,112,[0.17916666666666667],[0.4075],[1],[0],[0],[1.4588144000153989],['target'],112,0,112,0,141.2913705999963,,5,141.2676339999307,141.2913705999963,141.2913705999963,0.016467500012367964,142.72686089994386,[0.17916666666666667],[0.4075],[1],[0],[0],[1.4588144000153989],['target'],127600,001,2024-10-11_12h00.25.095,visual search experiement,2024.2.1post4,59.91816372083085,2024-10-11 12h00.36.614521 +0530,
113,0,113,[0.245],[0.055],[1],[0],[0],[1.1815424000378698],['target'],113,0,113,0,142.75758489989676,,5,142.7429078000132,142.75758489989676,142.75758489989676,0.015870099887251854,143.92505359998904,[0.245],[0.055],[1],[0],[0],[1.1815424000378698],['target'],127600,001,2024-10-11_12h00.25.095,visual search experiement,2024.2.1post4,59.91816372083085,2024-10-11 12h00.36.614521 +0530,
114,0,114,[0.395],[0.1975],[1],[0],[0],[1.1135013999883085],['target'],114,0,114,0,143.96461829985492,,5,143.94538909988478,143.96461829985492,143.96461829985492,0.02015709993429482,145.05942959990352,[0.395],[0.1975],[1],[0],[0],[1.1135013999883085],['target'],127600,001,2024-10-11_12h00.25.095,visual search experiement,2024.2.1post4,59.91816372083085,2024-10-11 12h00.36.614521 +0530,
115,0,115,[-0.03916666666666667],[0.20166666666666666],[1],[0],[0],[1.1475655999965966],['target'],115,0,115,0,145.21590640000068,,10,145.18411639984697,145.21590640000068,145.21590640000068,0.1244513001292944,146.3321594998706,[-0.03916666666666667],[0.20166666666666666],[1],[0],[0],[1.1475655999965966],['target'],127600,001,2024-10-11_12h00.25.095,visual search experiement,2024.2.1post4,59.91816372083085,2024-10-11 12h00.36.614521 +0530,
116,0,116,[-0.19416666666666665],[0.37333333333333335],[1],[0],[0],[1.1583405998535454],['target'],116,0,116,0,146.3725976999849,,5,146.3483420999255,146.3725976999849,146.3725976999849,0.015939899953082204,147.50730219995603,[-0.19416666666666665],[0.37333333333333335],[1],[0],[0],[1.1583405998535454],['target'],127600,001,2024-10-11_12h00.25.095,visual search experiement,2024.2.1post4,59.91816372083085,2024-10-11 12h00.36.614521 +0530,
117,0,117,[-0.26416666666666666],[-0.4041666666666667],[1],[0],[0],[1.6637705001048744],['target'],117,0,117,0,147.57238089991733,,10,147.54425429995172,147.57238089991733,147.57238089991733,0.036783199990168214,149.20848129992373,[-0.26416666666666666],[-0.4041666666666667],[1],[0],[0],[1.6637705001048744],['target'],127600,001,2024-10-11_12h00.25.095,visual search experiement,2024.2.1post4,59.91816372083085,2024-10-11 12h00.36.614521 +0530,
118,0,118,[-0.18083333333333335],[-0.2075],[1],[0],[0],[1.1630635999608785],['target'],118,0,118,0,149.23800330003724,,5,149.2249779999256,149.23800330003724,149.23800330003724,0.016268600011244416,150.38850039988756,[-0.18083333333333335],[-0.2075],[1],[0],[0],[1.1630635999608785],['target'],127600,001,2024-10-11_12h00.25.095,visual search experiement,2024.2.1post4,59.91816372083085,2024-10-11 12h00.36.614521 +0530,
119,0,119,[0.31083333333333335],[0.36333333333333334],[1],[0],[0],[1.3412987999618053],['target'],119,0,119,0,150.42873869999312,,5,150.4047735000495,150.42873869999312,150.42873869999312,0.016073800157755613,151.74652589997277,[0.31083333333333335],[0.36333333333333334],[1],[0],[0],[1.3412987999618053],['target'],127600,001,2024-10-11_12h00.25.095,visual search experiement,2024.2.1post4,59.91816372083085,2024-10-11 12h00.36.614521 +0530,
120,0,120,[-0.3983333333333333],[0.1425],[1],[0],[0],[1.2413071999326348],['target'],120,0,120,0,151.7865742999129,,5,151.76278369990177,151.7865742999129,151.7865742999129,0.01609149994328618,153.00461900001392,[-0.3983333333333333],[0.1425],[1],[0],[0],[1.2413071999326348],['target'],127600,001,2024-10-11_12h00.25.095,visual search experiement,2024.2.1post4,59.91816372083085,2024-10-11 12h00.36.614521 +0530,
121,0,121,[0.09],[0.15666666666666668],[1],[0],[0],[1.1506453000474721],['target'],121,0,121,0,153.04429310001433,,5,153.02079829992726,153.04429310001433,153.04429310001433,0.015975299989804626,154.17189519992098,[0.09],[0.15666666666666668],[1],[0],[0],[1.1506453000474721],['target'],127600,001,2024-10-11_12h00.25.095,visual search experiement,2024.2.1post4,59.91816372083085,2024-10-11 12h00.36.614521 +0530,
122,0,122,[-0.4066666666666667],[-0.23083333333333333],[1],[0],[0],[1.2099273998755962],['target'],122,0,122,0,154.22755269985646,,10,154.20335399988107,154.22755269985646,154.22755269985646,0.03127370006404817,155.41379479994066,[-0.4066666666666667],[-0.23083333333333333],[1],[0],[0],[1.2099273998755962],['target'],127600,001,2024-10-11_12h00.25.095,visual search experiement,2024.2.1post4,59.91816372083085,2024-10-11 12h00.36.614521 +0530,
123,0,123,[0.08583333333333333],[0.1675],[1],[0],[0],[1.4577244999818504],['target'],123,0,123,0,155.46828110003844,,10,155.44459649990313,155.46828110003844,155.46828110003844,0.030591299990192056,156.90295309992507,[0.08583333333333333],[0.1675],[1],[0],[0],[1.4577244999818504],['target'],127600,001,2024-10-11_12h00.25.095,visual search experiement,2024.2.1post4,59.91816372083085,2024-10-11 12h00.36.614521 +0530,
124,0,124,[0.4625],[0.13333333333333333],[1],[0],[0],[1.2732815998606384],['target'],124,0,124,0,156.9426100999117,,5,156.9194958000444,156.9426100999117,156.9426100999117,0.016341699985787272,158.19321119994856,[0.4625],[0.13333333333333333],[1],[0],[0],[1.2732815998606384],['target'],127600,001,2024-10-11_12h00.25.095,visual search experiement,2024.2.1post4,59.91816372083085,2024-10-11 12h00.36.614521 +0530,
125,0,125,[0.06166666666666667],[-0.2475],[1],[0],[0],[1.0165188000537455],['target'],125,0,125,0,158.24080869997852,,10,158.22476110002026,158.24080869997852,158.24080869997852,0.031352699967101216,159.24176310002804,[0.06166666666666667],[-0.2475],[1],[0],[0],[1.0165188000537455],['target'],127600,001,2024-10-11_12h00.25.095,visual search experiement,2024.2.1post4,59.91816372083085,2024-10-11 12h00.36.614521 +0530,
126,0,126,[0.44916666666666666],[0.30666666666666664],[1],[0],[0],[1.6536071998998523],['target'],126,0,126,0,159.29064520006068,,10,159.27305289986543,159.29064520006068,159.29064520006068,0.031049299985170364,160.92717739986256,[0.44916666666666666],[0.30666666666666664],[1],[0],[0],[1.6536071998998523],['target'],127600,001,2024-10-11_12h00.25.095,visual search experiement,2024.2.1post4,59.91816372083085,2024-10-11 12h00.36.614521 +0530,
127,0,127,[-0.28833333333333333],[-0.41833333333333333],[1],[0],[0],[1.75583909987472],['target'],127,0,127,0,160.95616659987718,,5,160.9438344000373,160.95616659987718,160.95616659987718,0.016448399983346462,162.70010289992206,[-0.28833333333333333],[-0.41833333333333333],[1],[0],[0],[1.75583909987472],['target'],127600,001,2024-10-11_12h00.25.095,visual search experiement,2024.2.1post4,59.91816372083085,2024-10-11 12h00.36.614521 +0530,
128,0,128,[0.3075],[-0.44166666666666665],[1],[0],[0],[1.6118687000125647],['target'],128,0,128,0,162.72998319985345,,5,162.7187636999879,162.72998319985345,162.72998319985345,0.018498499877750874,164.33106460003182,[0.3075],[-0.44166666666666665],[1],[0],[0],[1.6118687000125647],['target'],127600,001,2024-10-11_12h00.25.095,visual search experiement,2024.2.1post4,59.91816372083085,2024-10-11 12h00.36.614521 +0530,
129,0,129,[-0.3441666666666667],[-0.3016666666666667],[1],[0],[0],[1.274221499916166],['target'],129,0,129,0,164.37191320001148,,5,164.34782369993627,164.37191320001148,164.37191320001148,0.016587699996307492,165.62261419999413,[-0.3441666666666667],[-0.3016666666666667],[1],[0],[0],[1.274221499916166],['target'],127600,001,2024-10-11_12h00.25.095,visual search experiement,2024.2.1post4,59.91816372083085,2024-10-11 12h00.36.614521 +0530,
130,0,130,[-0.22166666666666668],[-0.19666666666666666],[0],[0],[1],[1.066320599988103],[None],130,0,130,0,165.67030650004745,,10,165.65456719999202,165.67030650004745,165.67030650004745,0.03178299986757338,166.7214965999592,[-0.22166666666666668],[-0.19666666666666666],[0],[0],[1],[1.066320599988103],[None],127600,001,2024-10-11_12h00.25.095,visual search experiement,2024.2.1post4,59.91816372083085,2024-10-11 12h00.36.614521 +0530,
131,0,131,[-0.22166666666666668],[-0.19666666666666666],[0],[0],[1],[0.1414137000683695],[None],131,0,131,0,166.76151079987176,,5,166.73811429995112,166.76151079987176,166.76151079987176,0.016397099941968918,166.88010219996795,[-0.22166666666666668],[-0.19666666666666666],[0],[0],[1],[0.1414137000683695],[None],127600,001,2024-10-11_12h00.25.095,visual search experiement,2024.2.1post4,59.91816372083085,2024-10-11 12h00.36.614521 +0530,
132,0,132,[-0.22166666666666668],[-0.19666666666666666],[0],[0],[1],[0.11772980005480349],[None],132,0,132,0,166.9292589998804,,10,166.91350999986753,166.9292589998804,166.9292589998804,0.033251000102609396,167.03181830001995,[-0.22166666666666668],[-0.19666666666666666],[0],[0],[1],[0.11772980005480349],[None],127600,001,2024-10-11_12h00.25.095,visual search experiement,2024.2.1post4,59.91816372083085,2024-10-11 12h00.36.614521 +0530,
133,0,133,[-0.22166666666666668],[-0.19666666666666666],[0],[0],[1],[0.1303302999585867],[None],133,0,133,0,167.06149220000952,,5,167.04853799985722,167.06149220000952,167.06149220000952,0.016504500061273575,167.1792897998821,[-0.22166666666666668],[-0.19666666666666666],[0],[0],[1],[0.1303302999585867],[None],127600,001,2024-10-11_12h00.25.095,visual search experiement,2024.2.1post4,59.91816372083085,2024-10-11 12h00.36.614521 +0530,
134,0,134,[-0.22166666666666668],[-0.19666666666666666],[0],[0],[1],[0.10767569998279214],[None],134,0,134,0,167.21993059990928,,5,167.19632969982922,167.21993059990928,167.21993059990928,0.01685940008610487,167.30444519990124,[-0.22166666666666668],[-0.19666666666666666],[0],[0],[1],[0.10767569998279214],[None],127600,001,2024-10-11_12h00.25.095,visual search experiement,2024.2.1post4,59.91816372083085,2024-10-11 12h00.36.614521 +0530,
135,0,135,[-0.22166666666666668],[-0.19666666666666666],[0],[0],[1],[0.12500769994221628],[None],135,0,135,0,167.3452016999945,,5,167.32097360002808,167.3452016999945,167.3452016999945,0.016359400004148483,167.44657239993103,[-0.22166666666666668],[-0.19666666666666666],[0],[0],[1],[0.12500769994221628],[None],127600,001,2024-10-11_12h00.25.095,visual search experiement,2024.2.1post4,59.91816372083085,2024-10-11 12h00.36.614521 +0530,
136,0,136,[0.22416666666666665],[0.24666666666666667],[1],[0],[0],[1.7677915999665856],['target'],136,0,136,0,167.49499040003866,,10,167.47894759988412,167.49499040003866,167.49499040003866,0.032173699932172894,169.2472252000589,[0.22416666666666665],[0.24666666666666667],[1],[0],[0],[1.7677915999665856],['target'],127600,001,2024-10-11_12h00.25.095,visual search experiement,2024.2.1post4,59.91816372083085,2024-10-11 12h00.36.614521 +0530,
137,0,137,[-0.44583333333333336],[0.22083333333333333],[1],[0],[0],[1.6903309999033809],['target'],137,0,137,0,169.30386919993907,,10,169.27833199989982,169.30386919993907,169.30386919993907,0.030894699972122908,170.96907150000334,[-0.44583333333333336],[0.22083333333333333],[1],[0],[0],[1.6903309999033809],['target'],127600,001,2024-10-11_12h00.25.095,visual search experiement,2024.2.1post4,59.91816372083085,2024-10-11 12h00.36.614521 +0530,
138,0,138,[-0.27166666666666667],[0.315],[1],[0],[0],[1.2227956999558955],['target'],138,0,138,0,171.00933679984882,,5,170.98785489983857,171.00933679984882,171.00933679984882,0.018559199990704656,172.2112499999348,[-0.27166666666666667],[0.315],[1],[0],[0],[1.2227956999558955],['target'],127600,001,2024-10-11_12h00.25.095,visual search experiement,2024.2.1post4,59.91816372083085,2024-10-11 12h00.36.614521 +0530,
139,0,139,[-0.23166666666666666],[-0.3333333333333333],[1],[0],[0],[1.40027999994345],['target'],139,0,139,0,172.25999549985863,,10,172.24474929994904,172.25999549985863,172.25999549985863,0.0332931000739336,173.64557459997013,[-0.23166666666666666],[-0.3333333333333333],[1],[0],[0],[1.40027999994345],['target'],127600,001,2024-10-11_12h00.25.095,visual search experiement,2024.2.1post4,59.91816372083085,2024-10-11 12h00.36.614521 +0530,
140,0,140,[0.13333333333333333],[-0.43],[1],[0],[0],[2.5797860000748187],['target'],140,0,140,0,173.67493729991838,,5,173.66204770002514,173.67493729991838,173.67493729991838,0.016175400000065565,176.2423335998319,[0.13333333333333333],[-0.43],[1],[0],[0],[2.5797860000748187],['target'],127600,001,2024-10-11_12h00.25.095,visual search experiement,2024.2.1post4,59.91816372083085,2024-10-11 12h00.36.614521 +0530,
141,0,141,[-0.0825],[-0.2975],[1],[0],[0],[1.2165720001794398],['target'],141,0,141,0,176.29031739989296,,10,176.27510620001704,176.29031739989296,176.29031739989296,0.0325613000895828,177.49228370003402,[-0.0825],[-0.2975],[1],[0],[0],[1.2165720001794398],['target'],127600,001,2024-10-11_12h00.25.095,visual search experiement,2024.2.1post4,59.91816372083085,2024-10-11 12h00.36.614521 +0530,
142,0,142,[-0.385],[0.0925],[1],[0],[0],[1.1568488001357764],['target'],142,0,142,0,177.5319632999599,,5,177.50862389989197,177.5319632999599,177.5319632999599,0.01607850007712841,178.66593919997104,[-0.385],[0.0925],[1],[0],[0],[1.1568488001357764],['target'],127600,001,2024-10-11_12h00.25.095,visual search experiement,2024.2.1post4,59.91816372083085,2024-10-11 12h00.36.614521 +0530,
143,0,143,[-0.23166666666666666],[0.015833333333333335],[1],[0],[0],[0.845786000136286],['target'],143,0,143,0,178.7316866000183,,10,178.7025885998737,178.7316866000183,178.7316866000183,0.036449900129809976,179.5488042999059,[-0.23166666666666666],[0.015833333333333335],[1],[0],[0],[0.845786000136286],['target'],127600,001,2024-10-11_12h00.25.095,visual search experiement,2024.2.1post4,59.91816372083085,2024-10-11 12h00.36.614521 +0530,
144,0,144,[-0.0325],[0.0875],[1],[0],[0],[0.8133278999011964],['target'],144,0,144,0,179.61479909997433,,10,179.58482169988565,179.61479909997433,179.61479909997433,0.03580569988116622,180.39861269993708,[-0.0325],[0.0875],[1],[0],[0],[0.8133278999011964],['target'],127600,001,2024-10-11_12h00.25.095,visual search experiement,2024.2.1post4,59.91816372083085,2024-10-11 12h00.36.614521 +0530,
145,0,145,[0.15083333333333335],[0.38166666666666665],[1],[0],[0],[1.4497485000174493],['target'],145,0,145,0,180.44695709994994,,10,180.43074949993752,180.44695709994994,180.44695709994994,0.031941100023686886,181.88095939997584,[0.15083333333333335],[0.38166666666666665],[1],[0],[0],[1.4497485000174493],['target'],127600,001,2024-10-11_12h00.25.095,visual search experiement,2024.2.1post4,59.91816372083085,2024-10-11 12h00.36.614521 +0530,
146,0,146,[-0.4083333333333333],[0.21833333333333332],[1],[0],[0],[1.7153767999261618],['target'],146,0,146,0,181.9468316999264,,10,181.91485119983554,181.9468316999264,181.9468316999264,0.033610699931159616,183.6307472998742,[-0.4083333333333333],[0.21833333333333332],[1],[0],[0],[1.7153767999261618],['target'],127600,001,2024-10-11_12h00.25.095,visual search experiement,2024.2.1post4,59.91816372083085,2024-10-11 12h00.36.614521 +0530,
147,0,147,[0.24833333333333332],[-0.41833333333333333],[1],[0],[0],[1.7241489000152797],['target'],147,0,147,0,183.6709088999778,,5,183.64692369988188,183.6709088999778,183.6709088999778,0.015954900067299604,185.37151279998943,[0.24833333333333332],[-0.41833333333333333],[1],[0],[0],[1.7241489000152797],['target'],127600,001,2024-10-11_12h00.25.095,visual search experiement,2024.2.1post4,59.91816372083085,2024-10-11 12h00.36.614521 +0530,
148,0,148,[0.0825],[0.4125],[1],[0],[0],[1.2181090000085533],['target'],148,0,148,0,185.42014249996282,,10,185.40444439998828,185.42014249996282,185.42014249996282,0.032733700005337596,186.62305679987185,[0.0825],[0.4125],[1],[0],[0],[1.2181090000085533],['target'],127600,001,2024-10-11_12h00.25.095,visual search experiement,2024.2.1post4,59.91816372083085,2024-10-11 12h00.36.614521 +0530,
149,0,149,[-0.28],[0.42916666666666664],[1],[0],[0],[1.128072400111705],['target'],149,0,149,0,186.65247550001368,,5,186.641480299877,186.65247550001368,186.65247550001368,0.018217399949207902,187.77002649987116,[-0.28],[0.42916666666666664],[1],[0],[0],[1.128072400111705],['target'],127600,001,2024-10-11_12h00.25.095,visual search experiement,2024.2.1post4,59.91816372083085,2024-10-11 12h00.36.614521 +0530,
150,0,150,[-0.1275],[-0.2825],[1],[0],[0],[1.4080980001017451],['target'],150,0,150,0,187.81069920002483,,5,187.78618939989246,187.81069920002483,187.81069920002483,0.015978100011125207,189.1947419999633,[-0.1275],[-0.2825],[1],[0],[0],[1.4080980001017451],['target'],127600,001,2024-10-11_12h00.25.095,visual search experiement,2024.2.1post4,59.91816372083085,2024-10-11 12h00.36.614521 +0530,
151,0,151,[-0.4925],[-0.3375],[1],[0],[0],[1.2522150999866426],['target'],151,0,151,0,189.24320199992508,,10,189.22802080004476,189.24320199992508,189.24320199992508,0.033098099986091256,190.48080300004221,[-0.4925],[-0.3375],[1],[0],[0],[1.2522150999866426],['target'],127600,001,2024-10-11_12h00.25.095,visual search experiement,2024.2.1post4,59.91816372083085,2024-10-11 12h00.36.614521 +0530,
152,0,152,[0.35],[-0.3616666666666667],[1],[0],[0],[1.629016499966383],['target'],152,0,152,0,190.5094870000612,,5,190.49868309986778,190.5094870000612,190.5094870000612,0.017609799979254603,192.12819690001197,[0.35],[-0.3616666666666667],[1],[0],[0],[1.629016499966383],['target'],127600,001,2024-10-11_12h00.25.095,visual search experiement,2024.2.1post4,59.91816372083085,2024-10-11 12h00.36.614521 +0530,
153,0,153,[-0.2075],[0.13083333333333333],[1],[0],[0],[1.472926100017503],['target'],153,0,153,0,192.16777069983073,,5,192.144450499909,192.16777069983073,192.16777069983073,0.016102999914437532,193.61781379999593,[-0.2075],[0.13083333333333333],[1],[0],[0],[1.472926100017503],['target'],127600,001,2024-10-11_12h00.25.095,visual search experiement,2024.2.1post4,59.91816372083085,2024-10-11 12h00.36.614521 +0530,
154,0,154,[0.4625],[-0.3975],[1],[0],[0],[1.360463400138542],['target'],154,0,154,0,193.6429516999051,,5,193.63367949984968,193.6429516999051,193.6429516999051,0.015694000059738755,194.99456200003624,[0.4625],[-0.3975],[1],[0],[0],[1.360463400138542],['target'],127600,001,2024-10-11_12h00.25.095,visual search experiement,2024.2.1post4,59.91816372083085,2024-10-11 12h00.36.614521 +0530,
155,0,155,[0.39416666666666667],[-0.19666666666666666],[1],[0],[0],[11.492879699915648],['target'],155,0,155,0,195.0249651998747,,5,195.0111900998745,195.0249651998747,195.0249651998747,0.016439700033515692,206.50470859999768,[0.39416666666666667],[-0.19666666666666666],[1],[0],[0],[11.492879699915648],['target'],127600,001,2024-10-11_12h00.25.095,visual search experiement,2024.2.1post4,59.91816372083085,2024-10-11 12h00.36.614521 +0530,
156,0,156,[0.5083333333333333],[-0.10333333333333333],[1],[0],[0],[0.8744826999027282],['target'],156,0,156,0,206.5449013998732,,5,206.52063899999484,206.5449013998732,206.5449013998732,0.015753000043332577,207.39557900000364,[0.5083333333333333],[-0.10333333333333333],[1],[0],[0],[0.8744826999027282],['target'],127600,001,2024-10-11_12h00.25.095,visual search experiement,2024.2.1post4,59.91816372083085,2024-10-11 12h00.36.614521 +0530,
157,0,157,[0.24666666666666667],[0.15916666666666668],[1],[0],[0],[1.2572565998416394],['target'],157,0,157,0,207.43594309990294,,5,207.4121288000606,207.43594309990294,207.43594309990294,0.016348900040611625,208.6698493999429,[0.24666666666666667],[0.15916666666666668],[1],[0],[0],[1.2572565998416394],['target'],127600,001,2024-10-11_12h00.25.095,visual search experiement,2024.2.1post4,59.91816372083085,2024-10-11 12h00.36.614521 +0530,
158,0,158,[0.24666666666666667],[0.15916666666666668],[0],[0],[1],[0.45687599992379546],[None],158,0,158,0,208.70987450005487,,5,208.68756740004756,208.70987450005487,208.70987450005487,0.017552500125020742,209.1448677999433,[0.24666666666666667],[0.15916666666666668],[0],[0],[1],[0.45687599992379546],[None],127600,001,2024-10-11_12h00.25.095,visual search experiement,2024.2.1post4,59.91816372083085,2024-10-11 12h00.36.614521 +0530,
159,0,159,[0.24666666666666667],[0.15916666666666668],[0],[0],[1],[0.1816326999105513],[None],159,0,159,0,209.20992899988778,,10,209.179201599909,209.20992899988778,209.20992899988778,0.0341456001624465,209.36130620003678,[0.24666666666666667],[0.15916666666666668],[0],[0],[1],[0.1816326999105513],[None],127600,001,2024-10-11_12h00.25.095,visual search experiement,2024.2.1post4,59.91816372083085,2024-10-11 12h00.36.614521 +0530,
160,0,160,[0.24666666666666667],[0.15916666666666668],[0],[0],[1],[0.12481469986960292],[None],160,0,160,0,209.40172269986942,,5,209.3779420000501,209.40172269986942,209.40172269986942,0.016437599901109934,209.5032108000014,[0.24666666666666667],[0.15916666666666668],[0],[0],[1],[0.12481469986960292],[None],127600,001,2024-10-11_12h00.25.095,visual search experiement,2024.2.1post4,59.91816372083085,2024-10-11 12h00.36.614521 +0530,
161,0,161,[0.24666666666666667],[0.15916666666666668],[0],[0],[1],[0.1246259999461472],[None],161,0,161,0,209.54320329986513,,5,209.52023739996366,209.54320329986513,209.54320329986513,0.016850000014528632,209.64541559992358,[0.24666666666666667],[0.15916666666666668],[0],[0],[1],[0.1246259999461472],[None],127600,001,2024-10-11_12h00.25.095,visual search experiement,2024.2.1post4,59.91816372083085,2024-10-11 12h00.36.614521 +0530,
162,0,162,[-0.42083333333333334],[-0.39416666666666667],[1],[0],[0],[2.5157790000084788],['target'],162,0,162,0,209.6931675998494,,10,209.6769749999512,209.6931675998494,209.6931675998494,0.03138729999773204,212.19330039992929,[-0.42083333333333334],[-0.39416666666666667],[1],[0],[0],[2.5157790000084788],['target'],127600,001,2024-10-11_12h00.25.095,visual search experiement,2024.2.1post4,59.91816372083085,2024-10-11 12h00.36.614521 +0530,
163,0,163,[0.335],[-0.11583333333333333],[1],[0],[0],[1.2716550000477582],['target'],163,0,163,0,212.23331579985097,,5,212.21224000002258,212.23331579985097,212.23331579985097,0.018723499961197376,213.4843768000137,[0.335],[-0.11583333333333333],[1],[0],[0],[1.2716550000477582],['target'],127600,001,2024-10-11_12h00.25.095,visual search experiement,2024.2.1post4,59.91816372083085,2024-10-11 12h00.36.614521 +0530,
164,0,164,[-0.30083333333333334],[-0.009166666666666667],[1],[0],[0],[1.0564890000969172],['target'],164,0,164,0,213.52439719997346,,5,213.50272560003214,213.52439719997346,213.52439719997346,0.018195100128650665,214.55969049991108,[-0.30083333333333334],[-0.009166666666666667],[1],[0],[0],[1.0564890000969172],['target'],127600,001,2024-10-11_12h00.25.095,visual search experiement,2024.2.1post4,59.91816372083085,2024-10-11 12h00.36.614521 +0530,
165,0,165,[-0.33416666666666667],[-0.12],[1],[0],[0],[0.7887442000210285],['target'],165,0,165,0,214.59907360002398,,5,214.57871280005202,214.59907360002398,214.59907360002398,0.018776000011712313,215.368147399975,[-0.33416666666666667],[-0.12],[1],[0],[0],[0.7887442000210285],['target'],127600,001,2024-10-11_12h00.25.095,visual search experiement,2024.2.1post4,59.91816372083085,2024-10-11 12h00.36.614521 +0530,
166,0,166,[0.4525],[0.355],[1],[0],[0],[1.334214000031352],['target'],166,0,166,0,215.4082245999016,,5,215.38408369990066,215.4082245999016,215.4082245999016,0.01574639999307692,216.71885409997776,[0.4525],[0.355],[1],[0],[0],[1.334214000031352],['target'],127600,001,2024-10-11_12h00.25.095,visual search experiement,2024.2.1post4,59.91816372083085,2024-10-11 12h00.36.614521 +0530,
167,0,167,[0.15166666666666667],[0.0925],[1],[0],[0],[1.2302723000757396],['target'],167,0,167,0,216.74878839985467,,5,216.7355553000234,216.74878839985467,216.74878839985467,0.01649770000949502,217.96635239990428,[0.15166666666666667],[0.0925],[1],[0],[0],[1.2302723000757396],['target'],127600,001,2024-10-11_12h00.25.095,visual search experiement,2024.2.1post4,59.91816372083085,2024-10-11 12h00.36.614521 +0530,
168,0,168,[-0.1425],[0.11916666666666667],[1],[0],[0],[1.1576230998616666],['target'],168,0,168,0,218.00637819990516,,5,217.98258349997923,218.00637819990516,218.00637819990516,0.01605449989438057,219.14069859986193,[-0.1425],[0.11916666666666667],[1],[0],[0],[1.1576230998616666],['target'],127600,001,2024-10-11_12h00.25.095,visual search experiement,2024.2.1post4,59.91816372083085,2024-10-11 12h00.36.614521 +0530,
169,0,169,[-0.36],[0.47333333333333333],[1],[0],[0],[1.6572249000892043],['target'],169,0,169,0,219.18094379990362,,5,219.1568328998983,219.18094379990362,219.18094379990362,0.015969800064340234,220.81450439989567,[-0.36],[0.47333333333333333],[1],[0],[0],[1.6572249000892043],['target'],127600,001,2024-10-11_12h00.25.095,visual search experiement,2024.2.1post4,59.91816372083085,2024-10-11 12h00.36.614521 +0530,
170,0,170,[0.27666666666666667],[-0.2825],[1],[0],[0],[1.608094200026244],['target'],170,0,170,0,220.85553489997983,,5,220.83124980004504,220.85553489997983,220.85553489997983,0.016535500064492226,222.43993250001222,[0.27666666666666667],[-0.2825],[1],[0],[0],[1.608094200026244],['target'],127600,001,2024-10-11_12h00.25.095,visual search experiement,2024.2.1post4,59.91816372083085,2024-10-11 12h00.36.614521 +0530,
171,0,171,[-0.12],[-0.105],[1],[0],[0],[0.9677045999560505],['target'],171,0,171,0,222.4881039999891,,10,222.47187349991873,222.4881039999891,222.4881039999891,0.03174480004236102,223.4399826999288,[-0.12],[-0.105],[1],[0],[0],[0.9677045999560505],['target'],127600,001,2024-10-11_12h00.25.095,visual search experiement,2024.2.1post4,59.91816372083085,2024-10-11 12h00.36.614521 +0530,
172,0,172,[0.30083333333333334],[0.16416666666666666],[1],[0],[0],[1.748569600051269],['target'],172,0,172,0,223.47096269996837,,5,223.45596940000542,223.47096269996837,223.47096269996837,0.01576109998859465,225.2050973000005,[0.30083333333333334],[0.16416666666666666],[1],[0],[0],[1.748569600051269],['target'],127600,001,2024-10-11_12h00.25.095,visual search experiement,2024.2.1post4,59.91816372083085,2024-10-11 12h00.36.614521 +0530,
173,0,173,[-0.22333333333333333],[-0.0375],[1],[0],[0],[1.1025943998247385],['target'],173,0,173,0,225.2449934000615,,5,225.22669729986228,225.2449934000615,225.2449934000615,0.021398399956524372,226.3298221998848,[-0.22333333333333333],[-0.0375],[1],[0],[0],[1.1025943998247385],['target'],127600,001,2024-10-11_12h00.25.095,visual search experiement,2024.2.1post4,59.91816372083085,2024-10-11 12h00.36.614521 +0530,
174,0,174,[0.41],[0.3975],[1],[0],[0],[2.8511776998639107],['target'],174,0,174,0,226.3786289000418,,10,226.36148729990236,226.3786289000418,226.3786289000418,0.03150100004859269,229.21321499999613,[0.41],[0.3975],[1],[0],[0],[2.8511776998639107],['target'],127600,001,2024-10-11_12h00.25.095,visual search experiement,2024.2.1post4,59.91816372083085,2024-10-11 12h00.36.614521 +0530,
175,0,175,[-0.1675],[0.48833333333333334],[1],[0],[0],[1.6153328998479992],['target'],175,0,175,0,229.26832479983568,,10,229.24607830005698,229.26832479983568,229.26832479983568,0.03261539991945028,230.8618799999822,[-0.1675],[0.48833333333333334],[1],[0],[0],[1.6153328998479992],['target'],127600,001,2024-10-11_12h00.25.095,visual search experiement,2024.2.1post4,59.91816372083085,2024-10-11 12h00.36.614521 +0530,
176,0,176,[-0.4058333333333333],[-0.1875],[1],[0],[0],[1.0815023998729885],[None],176,0,176,0,230.89250259986147,,5,230.87826879997738,230.89250259986147,230.89250259986147,0.016128200106322765,231.9602109999396,[-0.4058333333333333],[-0.1875],[1],[0],[0],[1.0815023998729885],[None],127600,001,2024-10-11_12h00.25.095,visual search experiement,2024.2.1post4,59.91816372083085,2024-10-11 12h00.36.614521 +0530,
177,0,177,[0.4066666666666667],[0.17666666666666667],[1],[0],[0],[1.7080534000415355],['target'],177,0,177,0,232.00015069986694,,5,231.9764012999367,232.00015069986694,232.00015069986694,0.016012500040233135,233.68498919997364,[0.4066666666666667],[0.17666666666666667],[1],[0],[0],[1.7080534000415355],['target'],127600,001,2024-10-11_12h00.25.095,visual search experiement,2024.2.1post4,59.91816372083085,2024-10-11 12h00.36.614521 +0530,
178,0,178,[-0.4716666666666667],[-0.059166666666666666],[1],[0],[0],[1.1352871002163738],['target'],178,0,178,0,233.73258790001273,,10,233.71651219995692,233.73258790001273,233.73258790001273,0.031365200178697705,234.8522679999005,[-0.4716666666666667],[-0.059166666666666666],[1],[0],[0],[1.1352871002163738],['target'],127600,001,2024-10-11_12h00.25.095,visual search experiement,2024.2.1post4,59.91816372083085,2024-10-11 12h00.36.614521 +0530,
179,0,179,[-0.13833333333333334],[0.46166666666666667],[1],[0],[0],[1.5956350001506507],['target'],179,0,179,0,234.8819309999235,,5,234.87132789986208,234.8819309999235,234.8819309999235,0.018870200030505657,236.46758070006035,[-0.13833333333333334],[0.46166666666666667],[1],[0],[0],[1.5956350001506507],['target'],127600,001,2024-10-11_12h00.25.095,visual search experiement,2024.2.1post4,59.91816372083085,2024-10-11 12h00.36.614521 +0530,
180,0,180,[0.25],[-0.0825],[1],[0],[0],[1.4729625000618398],['target'],180,0,180,0,236.50640619988553,,5,236.48379869991913,236.50640619988553,236.50640619988553,0.01602690014988184,237.95722129987553,[0.25],[-0.0825],[1],[0],[0],[1.4729625000618398],['target'],127600,001,2024-10-11_12h00.25.095,visual search experiement,2024.2.1post4,59.91816372083085,2024-10-11 12h00.36.614521 +0530,
181,0,181,[-0.10583333333333333],[-0.16],[1],[0],[0],[1.29127879999578],['target'],181,0,181,0,237.99774360004812,,5,237.9738584998995,237.99774360004812,237.99774360004812,0.016441699815914035,239.26570759993047,[-0.10583333333333333],[-0.16],[1],[0],[0],[1.29127879999578],['target'],127600,001,2024-10-11_12h00.25.095,visual search experiement,2024.2.1post4,59.91816372083085,2024-10-11 12h00.36.614521 +0530,
182,0,182,[-0.225],[0.1625],[1],[0],[0],[1.9898541001603007],['target'],182,0,182,0,239.3060542999301,,5,239.2823858000338,239.3060542999301,239.3060542999301,0.01647430006414652,241.2727041998878,[-0.225],[0.1625],[1],[0],[0],[1.9898541001603007],['target'],127600,001,2024-10-11_12h00.25.095,visual search experiement,2024.2.1post4,59.91816372083085,2024-10-11 12h00.36.614521 +0530,
183,0,183,[-0.32],[-0.25416666666666665],[1],[0],[0],[1.1156348998192698],['target'],183,0,183,0,241.33748320001177,,10,241.30629059998319,241.33748320001177,241.33748320001177,0.033374000107869506,242.4223921999801,[-0.32],[-0.25416666666666665],[1],[0],[0],[1.1156348998192698],['target'],127600,001,2024-10-11_12h00.25.095,visual search experiement,2024.2.1post4,59.91816372083085,2024-10-11 12h00.36.614521 +0530,
184,0,184,[-0.29583333333333334],[-0.13333333333333333],[1],[0],[0],[0.9993761999066919],['target'],184,0,184,0,242.47015059995465,,10,242.4552625999786,242.47015059995465,242.47015059995465,0.0326324999332428,243.45507949986495,[-0.29583333333333334],[-0.13333333333333333],[1],[0],[0],[0.9993761999066919],['target'],127600,001,2024-10-11_12h00.25.095,visual search experiement,2024.2.1post4,59.91816372083085,2024-10-11 12h00.36.614521 +0530,
185,0,185,[0.36583333333333334],[-0.014166666666666666],[1],[0],[0],[1.483556899940595],['target'],185,0,185,0,243.50319069996476,,10,243.48687270004302,243.50319069996476,243.50319069996476,0.03157679992727935,244.97093790001236,[0.36583333333333334],[-0.014166666666666666],[1],[0],[0],[1.483556899940595],['target'],127600,001,2024-10-11_12h00.25.095,visual search experiement,2024.2.1post4,59.91816372083085,2024-10-11 12h00.36.614521 +0530,
186,0,186,[-0.28],[-0.030833333333333334],[1],[0],[0],[1.981405399972573],['target'],186,0,186,0,245.03547020000406,,10,245.00637930002995,245.03547020000406,245.03547020000406,0.03519399999640882,246.9882835999597,[-0.28],[-0.030833333333333334],[1],[0],[0],[1.981405399972573],['target'],127600,001,2024-10-11_12h00.25.095,visual search experiement,2024.2.1post4,59.91816372083085,2024-10-11 12h00.36.614521 +0530,
187,0,187,[-0.19583333333333333],[0.2966666666666667],[1],[0],[0],[1.0643712000455707],['target'],187,0,187,0,247.01845630002208,,5,247.0044062999077,247.01845630002208,247.01845630002208,0.015904000028967857,248.0692050999496,[-0.19583333333333333],[0.2966666666666667],[1],[0],[0],[1.0643712000455707],['target'],127600,001,2024-10-11_12h00.25.095,visual search experiement,2024.2.1post4,59.91816372083085,2024-10-11 12h00.36.614521 +0530,
188,0,188,[-0.275],[0.26666666666666666],[1],[0],[0],[0.9242679998278618],['target'],188,0,188,0,248.109635300003,,5,248.08541349996813,248.109635300003,248.109635300003,0.016036099987104535,249.010065499926,[-0.275],[0.26666666666666666],[1],[0],[0],[0.9242679998278618],['target'],127600,001,2024-10-11_12h00.25.095,visual search experiement,2024.2.1post4,59.91816372083085,2024-10-11 12h00.36.614521 +0530,
189,0,189,[0.3075],[0.1675],[1],[0],[0],[1.4400369999930263],['target'],189,0,189,0,249.0505051999353,,5,249.02788229985163,249.0505051999353,249.0505051999353,0.017625899985432625,250.46838789992034,[0.3075],[0.1675],[1],[0],[0],[1.4400369999930263],['target'],127600,001,2024-10-11_12h00.25.095,visual search experiement,2024.2.1post4,59.91816372083085,2024-10-11 12h00.36.614521 +0530,
190,0,190,[-0.13833333333333334],[-0.15166666666666667],[1],[0],[0],[1.3999632000923157],['target'],190,0,190,0,250.5147967999801,,10,250.49914460000582,250.5147967999801,250.5147967999801,0.030579200014472008,251.89972499990836,[-0.13833333333333334],[-0.15166666666666667],[1],[0],[0],[1.3999632000923157],['target'],127600,001,2024-10-11_12h00.25.095,visual search experiement,2024.2.1post4,59.91816372083085,2024-10-11 12h00.36.614521 +0530,
191,0,191,[0.0125],[-0.08416666666666667],[1],[0],[0],[1.0194659000262618],['target'],191,0,191,0,251.94813969987445,,10,251.93204919993877,251.94813969987445,251.94813969987445,0.03210760001093149,252.9520995998755,[0.0125],[-0.08416666666666667],[1],[0],[0],[1.0194659000262618],['target'],127600,001,2024-10-11_12h00.25.095,visual search experiement,2024.2.1post4,59.91816372083085,2024-10-11 12h00.36.614521 +0530,
192,0,192,[-0.13],[0.3016666666666667],[1],[0],[0],[2.4384182000067085],['target'],192,0,192,0,253.00532029988244,,10,252.98347319988534,253.00532029988244,253.00532029988244,0.031124799977988005,255.42243439983577,[-0.13],[0.3016666666666667],[1],[0],[0],[2.4384182000067085],['target'],127600,001,2024-10-11_12h00.25.095,visual search experiement,2024.2.1post4,59.91816372083085,2024-10-11 12h00.36.614521 +0530,
193,0,193,[0.0975],[-0.3466666666666667],[1],[0],[0],[1.7743601000402123],['target'],193,0,193,0,255.46308789984323,,5,255.4389813998714,255.46308789984323,255.46308789984323,0.01634260010905564,257.21380839985795,[0.0975],[-0.3466666666666667],[1],[0],[0],[1.7743601000402123],['target'],127600,001,2024-10-11_12h00.25.095,visual search experiement,2024.2.1post4,59.91816372083085,2024-10-11 12h00.36.614521 +0530,
194,0,194,[-0.3858333333333333],[-0.12166666666666667],[1],[0],[0],[1.1413823999464512],['target'],194,0,194,0,257.2536700000055,,5,257.22975299996324,257.2536700000055,257.2536700000055,0.01573899993672967,258.3716040998697,[-0.3858333333333333],[-0.12166666666666667],[1],[0],[0],[1.1413823999464512],['target'],127600,001,2024-10-11_12h00.25.095,visual search experiement,2024.2.1post4,59.91816372083085,2024-10-11 12h00.36.614521 +0530,
195,0,195,[-0.3858333333333333],[-0.12166666666666667],[0],[0],[1],[0.9744784999638796],[None],195,0,195,0,258.41207499988377,,5,258.3875008998439,258.41207499988377,258.41207499988377,0.015694999834522605,259.36248579993844,[-0.3858333333333333],[-0.12166666666666667],[0],[0],[1],[0.9744784999638796],[None],127600,001,2024-10-11_12h00.25.095,visual search experiement,2024.2.1post4,59.91816372083085,2024-10-11 12h00.36.614521 +0530,
196,0,196,[-0.3858333333333333],[-0.12166666666666667],[0],[0],[1],[0.17433260008692741],[None],196,0,196,0,259.4027366999071,,5,259.37910609995015,259.4027366999071,259.4027366999071,0.01646459987387061,259.5539050998632,[-0.3858333333333333],[-0.12166666666666667],[0],[0],[1],[0.17433260008692741],[None],127600,001,2024-10-11_12h00.25.095,visual search experiement,2024.2.1post4,59.91816372083085,2024-10-11 12h00.36.614521 +0530,
197,0,197,[-0.3858333333333333],[-0.12166666666666667],[0],[0],[1],[0.1414439999498427],[None],197,0,197,0,259.5944095000159,,5,259.5703054999467,259.5944095000159,259.5944095000159,0.01621670019812882,259.7122070998885,[-0.3858333333333333],[-0.12166666666666667],[0],[0],[1],[0.1414439999498427],[None],127600,001,2024-10-11_12h00.25.095,visual search experiement,2024.2.1post4,59.91816372083085,2024-10-11 12h00.36.614521 +0530,
198,0,198,[-0.3858333333333333],[-0.12166666666666667],[0],[0],[1],[0.10163180017843843],[None],198,0,198,0,259.7604960000608,,10,259.7451752999332,259.7604960000608,259.7604960000608,0.03280159994028509,259.8473622999154,[-0.3858333333333333],[-0.12166666666666667],[0],[0],[1],[0.10163180017843843],[None],127600,001,2024-10-11_12h00.25.095,visual search experiement,2024.2.1post4,59.91816372083085,2024-10-11 12h00.36.614521 +0530,
199,0,199,[-0.3858333333333333],[-0.12166666666666667],[0],[0],[1],[0.1314793999772519],[None],199,0,199,0,259.8771724998951,,5,259.8636550998781,259.8771724998951,259.8771724998951,0.016082199988886714,259.99556889990345,[-0.3858333333333333],[-0.12166666666666667],[0],[0],[1],[0.1314793999772519],[None],127600,001,2024-10-11_12h00.25.095,visual search experiement,2024.2.1post4,59.91816372083085,2024-10-11 12h00.36.614521 +0530,
