thisN,thisTrialN,thisRepN,mouse.x,mouse.y,mouse.leftButton,mouse.midButton,mouse.rightButton,mouse.time,mouse.clicked_name,trials.thisRepN,trials.thisTrialN,trials.thisN,trials.thisIndex,thisRow.t,notes,num_distr,trial.started,fixation.started,target.started,mouse.started,trial.stopped,trials.mouse.x,trials.mouse.y,trials.mouse.leftButton,trials.mouse.midButton,trials.mouse.rightButton,trials.mouse.time,trials.mouse.clicked_name,participant,session,date,expName,psychopyVersion,frameRate,expStart,
0,0,0,[-0.435],[0.10916666666666666],[1],[0],[0],[2.7386250998824835],['target'],0,0,0,0,0.0505683000665158,,5,0.029654100071638823,0.0505683000665158,0.0505683000665158,0.02936280006542802,2.768748100148514,[-0.435],[0.10916666666666666],[1],[0],[0],[2.7386250998824835],['target'],767126,001,2024-10-11_11h21.12.526,visual search experiement,2024.2.1post4,59.722493503923104,2024-10-11 11h21.19.037181 +0530,
1,0,1,[-0.15833333333333333],[-0.405],[1],[0],[0],[1.5660199001431465],['target'],1,0,1,0,2.808441699948162,,10,2.791567200096324,2.808441699948162,2.808441699948162,0.022700499976053834,4.357928100042045,[-0.15833333333333333],[-0.405],[1],[0],[0],[1.5660199001431465],['target'],767126,001,2024-10-11_11h21.12.526,visual search experiement,2024.2.1post4,59.722493503923104,2024-10-11 11h21.19.037181 +0530,
2,0,2,[-0.04416666666666667],[0.3908333333333333],[1],[0],[0],[1.7000873999204487],['target'],2,0,2,0,4.399934000102803,,10,4.381774300010875,4.399934000102803,4.399934000102803,0.023662500083446503,6.082208700012416,[-0.04416666666666667],[0.3908333333333333],[1],[0],[0],[1.7000873999204487],['target'],767126,001,2024-10-11_11h21.12.526,visual search experiement,2024.2.1post4,59.722493503923104,2024-10-11 11h21.19.037181 +0530,
3,0,3,[-0.3025],[-0.45],[1],[0],[0],[2.1678599999286234],['target'],3,0,3,0,6.123499599983916,,10,6.105293500004336,6.123499599983916,6.123499599983916,0.022927300073206425,8.273511100094765,[-0.3025],[-0.45],[1],[0],[0],[2.1678599999286234],['target'],767126,001,2024-10-11_11h21.12.526,visual search experiement,2024.2.1post4,59.722493503923104,2024-10-11 11h21.19.037181 +0530,
4,0,4,[-0.21916666666666668],[-0.33166666666666667],[1],[0],[0],[1.1597305999603122],['target'],4,0,4,0,8.293943000026047,,5,8.285351800033823,8.293943000026047,8.293943000026047,0.011651900131255388,9.445545500144362,[-0.21916666666666668],[-0.33166666666666667],[1],[0],[0],[1.1597305999603122],['target'],767126,001,2024-10-11_11h21.12.526,visual search experiement,2024.2.1post4,59.722493503923104,2024-10-11 11h21.19.037181 +0530,
5,0,5,[0.42583333333333334],[-0.11],[1],[0],[0],[3.5660708998329937],['target'],5,0,5,0,9.485013700090349,,10,9.468060499988496,9.485013700090349,9.485013700090349,0.022377499844878912,13.034447200130671,[0.42583333333333334],[-0.11],[1],[0],[0],[3.5660708998329937],['target'],767126,001,2024-10-11_11h21.12.526,visual search experiement,2024.2.1post4,59.722493503923104,2024-10-11 11h21.19.037181 +0530,
6,0,6,[0.07166666666666667],[0.26166666666666666],[1],[0],[0],[1.575626199832186],['target'],6,0,6,0,13.07457650010474,,10,13.059836500091478,13.07457650010474,13.07457650010474,0.025166399776935577,14.635866099968553,[0.07166666666666667],[0.26166666666666666],[1],[0],[0],[1.575626199832186],['target'],767126,001,2024-10-11_11h21.12.526,visual search experiement,2024.2.1post4,59.722493503923104,2024-10-11 11h21.19.037181 +0530,
7,0,7,[-0.35833333333333334],[-0.30416666666666664],[1],[0],[0],[2.784262999892235],['target'],7,0,7,0,14.665742099983618,,5,14.648738800082356,14.665742099983618,14.665742099983618,0.012696299934759736,17.433281500125304,[-0.35833333333333334],[-0.30416666666666664],[1],[0],[0],[2.784262999892235],['target'],767126,001,2024-10-11_11h21.12.526,visual search experiement,2024.2.1post4,59.722493503923104,2024-10-11 11h21.19.037181 +0530,
8,0,8,[0.050833333333333335],[0.11833333333333333],[1],[0],[0],[2.1987296000588685],['target'],8,0,8,0,17.479398499941453,,10,17.463539800141007,17.479398499941453,17.479398499941453,0.030126200057566166,19.662597300019115,[0.050833333333333335],[0.11833333333333333],[1],[0],[0],[2.1987296000588685],['target'],767126,001,2024-10-11_11h21.12.526,visual search experiement,2024.2.1post4,59.722493503923104,2024-10-11 11h21.19.037181 +0530,
9,0,9,[-0.056666666666666664],[0.03666666666666667],[1],[0],[0],[1.008885300019756],['target'],9,0,9,0,19.68328780005686,,5,19.674814000027254,19.68328780005686,19.68328780005686,0.012045299867168069,20.68402220006101,[-0.056666666666666664],[0.03666666666666667],[1],[0],[0],[1.008885300019756],['target'],767126,001,2024-10-11_11h21.12.526,visual search experiement,2024.2.1post4,59.722493503923104,2024-10-11 11h21.19.037181 +0530,
10,0,10,[-0.056666666666666664],[-0.41083333333333333],[1],[0],[0],[1.3836475999560207],['target'],10,0,10,0,20.72428740002215,,10,20.70753030013293,20.72428740002215,20.72428740002215,0.023381700040772557,22.091626200126484,[-0.056666666666666664],[-0.41083333333333333],[1],[0],[0],[1.3836475999560207],['target'],767126,001,2024-10-11_11h21.12.526,visual search experiement,2024.2.1post4,59.722493503923104,2024-10-11 11h21.19.037181 +0530,
11,0,11,[-0.465],[0.49833333333333335],[1],[0],[0],[3.463530099950731],['target'],11,0,11,0,22.131449199980125,,10,22.11779269995168,22.131449199980125,22.131449199980125,0.025964900152757764,25.581772099947557,[-0.465],[0.49833333333333335],[1],[0],[0],[3.463530099950731],['target'],767126,001,2024-10-11_11h21.12.526,visual search experiement,2024.2.1post4,59.722493503923104,2024-10-11 11h21.19.037181 +0530,
12,0,12,[0.059166666666666666],[-0.4558333333333333],[1],[0],[0],[3.2917484000790864],['target'],12,0,12,0,25.60418100003153,,5,25.59571300004609,25.60418100003153,25.60418100003153,0.01374329999089241,28.887812700122595,[0.059166666666666666],[-0.4558333333333333],[1],[0],[0],[3.2917484000790864],['target'],767126,001,2024-10-11_11h21.12.526,visual search experiement,2024.2.1post4,59.722493503923104,2024-10-11 11h21.19.037181 +0530,
13,0,13,[0.23916666666666667],[0.27],[1],[0],[0],[1.8170040999539196],['target'],13,0,13,0,28.928848100127652,,10,28.91094970004633,28.928848100127652,28.928848100127652,0.02298590005375445,30.728306000120938,[0.23916666666666667],[0.27],[1],[0],[0],[1.8170040999539196],['target'],767126,001,2024-10-11_11h21.12.526,visual search experiement,2024.2.1post4,59.722493503923104,2024-10-11 11h21.19.037181 +0530,
14,0,14,[-0.31416666666666665],[-0.16166666666666665],[1],[0],[0],[1.3255405998788774],['target'],14,0,14,0,30.749188699992374,,5,30.740352400112897,30.749188699992374,30.749188699992374,0.011892500100657344,32.06626689992845,[-0.31416666666666665],[-0.16166666666666665],[1],[0],[0],[1.3255405998788774],['target'],767126,001,2024-10-11_11h21.12.526,visual search experiement,2024.2.1post4,59.722493503923104,2024-10-11 11h21.19.037181 +0530,
15,0,15,[-0.17833333333333334],[-0.07833333333333334],[1],[0],[0],[1.1851737999822944],['target'],15,0,15,0,32.107257100054994,,10,32.088914500083774,32.107257100054994,32.107257100054994,0.022490199888125062,33.274453500052914,[-0.17833333333333334],[-0.07833333333333334],[1],[0],[0],[1.1851737999822944],['target'],767126,001,2024-10-11_11h21.12.526,visual search experiement,2024.2.1post4,59.722493503923104,2024-10-11 11h21.19.037181 +0530,
16,0,16,[-0.4091666666666667],[-0.25333333333333335],[1],[0],[0],[1.2496374000329524],['target'],16,0,16,0,33.31438590004109,,10,33.298668500036,33.31438590004109,33.31438590004109,0.02402730006724596,34.54865030013025,[-0.4091666666666667],[-0.25333333333333335],[1],[0],[0],[1.2496374000329524],['target'],767126,001,2024-10-11_11h21.12.526,visual search experiement,2024.2.1post4,59.722493503923104,2024-10-11 11h21.19.037181 +0530,
17,0,17,[0.3925],[0.016666666666666666],[1],[0],[0],[4.916454900056124],['target'],17,0,17,0,34.56986940000206,,5,34.56065999995917,34.56986940000206,34.56986940000206,0.011804700130596757,39.47747469996102,[0.3925],[0.016666666666666666],[1],[0],[0],[4.916454900056124],['target'],767126,001,2024-10-11_11h21.12.526,visual search experiement,2024.2.1post4,59.722493503923104,2024-10-11 11h21.19.037181 +0530,
18,0,18,[0.4791666666666667],[0.09416666666666666],[1],[0],[0],[1.159227899974212],['target'],18,0,18,0,39.498367900028825,,5,39.48970429995097,39.498367900028825,39.498367900028825,0.012103700079023838,40.649371600011364,[0.4791666666666667],[0.09416666666666666],[1],[0],[0],[1.159227899974212],['target'],767126,001,2024-10-11_11h21.12.526,visual search experiement,2024.2.1post4,59.722493503923104,2024-10-11 11h21.19.037181 +0530,
19,0,19,[-0.14333333333333334],[-0.4058333333333333],[1],[0],[0],[1.4916981998831034],['target'],19,0,19,0,40.669736500130966,,5,40.66104759997688,40.669736500130966,40.669736500130966,0.01154899992980063,42.1530959000811,[-0.14333333333333334],[-0.4058333333333333],[1],[0],[0],[1.4916981998831034],['target'],767126,001,2024-10-11_11h21.12.526,visual search experiement,2024.2.1post4,59.722493503923104,2024-10-11 11h21.19.037181 +0530,
20,0,20,[-0.13],[0.3233333333333333],[1],[0],[0],[1.7020998001098633],['target'],20,0,20,0,42.194737300043926,,10,42.175785900093615,42.194737300043926,42.194737300043926,0.022559700068086386,43.87832759995945,[-0.13],[0.3233333333333333],[1],[0],[0],[1.7020998001098633],['target'],767126,001,2024-10-11_11h21.12.526,visual search experiement,2024.2.1post4,59.722493503923104,2024-10-11 11h21.19.037181 +0530,
21,0,21,[-0.31083333333333335],[0.3975],[1],[0],[0],[1.082884999923408],['target'],21,0,21,0,43.917701500002295,,10,43.90267809992656,43.917701500002295,43.917701500002295,0.02419070014730096,44.986019500065595,[-0.31083333333333335],[0.3975],[1],[0],[0],[1.082884999923408],['target'],767126,001,2024-10-11_11h21.12.526,visual search experiement,2024.2.1post4,59.722493503923104,2024-10-11 11h21.19.037181 +0530,
22,0,22,[-0.23833333333333334],[-0.0825],[1],[0],[0],[1.2925992000382394],['target'],22,0,22,0,45.007060300093144,,5,44.99817740009166,45.007060300093144,45.007060300093144,0.012000499991700053,46.2911274000071,[-0.23833333333333334],[-0.0825],[1],[0],[0],[1.2925992000382394],['target'],767126,001,2024-10-11_11h21.12.526,visual search experiement,2024.2.1post4,59.722493503923104,2024-10-11 11h21.19.037181 +0530,
23,0,23,[0.31666666666666665],[-0.2891666666666667],[1],[0],[0],[2.2444615999702364],['target'],23,0,23,0,46.331943300087005,,10,46.31437940010801,46.331943300087005,46.331943300087005,0.02312489994801581,48.559208600083366,[0.31666666666666665],[-0.2891666666666667],[1],[0],[0],[2.2444615999702364],['target'],767126,001,2024-10-11_11h21.12.526,visual search experiement,2024.2.1post4,59.722493503923104,2024-10-11 11h21.19.037181 +0530,
24,0,24,[0.37333333333333335],[0.325],[1],[0],[0],[1.9208550001494586],['target'],24,0,24,0,48.61443970003165,,10,48.58684010012075,48.61443970003165,48.61443970003165,0.027425199979916215,50.50819030008279,[0.37333333333333335],[0.325],[1],[0],[0],[1.9208550001494586],['target'],767126,001,2024-10-11_11h21.12.526,visual search experiement,2024.2.1post4,59.722493503923104,2024-10-11 11h21.19.037181 +0530,
25,0,25,[0.43416666666666665],[0.13166666666666665],[1],[0],[0],[2.8790633000899106],['target'],25,0,25,0,50.54406570014544,,10,50.53102759993635,50.54406570014544,50.54406570014544,0.022674000123515725,53.410410600015894,[0.43416666666666665],[0.13166666666666665],[1],[0],[0],[2.8790633000899106],['target'],767126,001,2024-10-11_11h21.12.526,visual search experiement,2024.2.1post4,59.722493503923104,2024-10-11 11h21.19.037181 +0530,
26,0,26,[-0.24333333333333335],[0.39416666666666667],[1],[0],[0],[1.3422555001452565],['target'],26,0,26,0,53.43099100003019,,5,53.42309039994143,53.43099100003019,53.43099100003019,0.01252120011486113,54.76582069997676,[-0.24333333333333335],[0.39416666666666667],[1],[0],[0],[1.3422555001452565],['target'],767126,001,2024-10-11_11h21.12.526,visual search experiement,2024.2.1post4,59.722493503923104,2024-10-11 11h21.19.037181 +0530,
27,0,27,[-0.4816666666666667],[0.4625],[1],[0],[0],[1.7325965000782162],['target'],27,0,27,0,54.80537590011954,,10,54.789679599925876,54.80537590011954,54.80537590011954,0.023733200039714575,56.522597500123084,[-0.4816666666666667],[0.4625],[1],[0],[0],[1.7325965000782162],['target'],767126,001,2024-10-11_11h21.12.526,visual search experiement,2024.2.1post4,59.722493503923104,2024-10-11 11h21.19.037181 +0530,
28,0,28,[-0.28583333333333333],[-0.2625],[1],[0],[0],[1.6507194000296295],['target'],28,0,28,0,56.563631100114435,,10,56.54593489994295,56.563631100114435,56.563631100114435,0.02318740007467568,58.19697230006568,[-0.28583333333333333],[-0.2625],[1],[0],[0],[1.6507194000296295],['target'],767126,001,2024-10-11_11h21.12.526,visual search experiement,2024.2.1post4,59.722493503923104,2024-10-11 11h21.19.037181 +0530,
29,0,29,[-0.23666666666666666],[0.4325],[1],[0],[0],[1.3917452001478523],['target'],29,0,29,0,58.216985600069165,,5,58.20886359992437,58.216985600069165,58.216985600069165,0.01170360017567873,59.60097020003013,[-0.23666666666666666],[0.4325],[1],[0],[0],[1.3917452001478523],['target'],767126,001,2024-10-11_11h21.12.526,visual search experiement,2024.2.1post4,59.722493503923104,2024-10-11 11h21.19.037181 +0530,
30,0,30,[-0.3441666666666667],[-0.18833333333333332],[1],[0],[0],[1.1679424999747425],['target'],30,0,30,0,59.64174719993025,,10,59.62371219997294,59.64174719993025,59.64174719993025,0.022615499794483185,60.79200919996947,[-0.3441666666666667],[-0.18833333333333332],[1],[0],[0],[1.1679424999747425],['target'],767126,001,2024-10-11_11h21.12.526,visual search experiement,2024.2.1post4,59.722493503923104,2024-10-11 11h21.19.037181 +0530,
31,0,31,[-0.3525],[-0.26666666666666666],[1],[0],[0],[1.0096110000740737],['target'],31,0,31,0,60.81280760001391,,5,60.8041143999435,60.81280760001391,60.81280760001391,0.011918000178411603,61.81416820012964,[-0.3525],[-0.26666666666666666],[1],[0],[0],[1.0096110000740737],['target'],767126,001,2024-10-11_11h21.12.526,visual search experiement,2024.2.1post4,59.722493503923104,2024-10-11 11h21.19.037181 +0530,
32,0,32,[-0.12333333333333334],[0.485],[1],[0],[0],[2.516636199783534],['target'],32,0,32,0,61.85443040006794,,10,61.83725730003789,61.85443040006794,61.85443040006794,0.022960499860346317,64.35422129998915,[-0.12333333333333334],[0.485],[1],[0],[0],[2.516636199783534],['target'],767126,001,2024-10-11_11h21.12.526,visual search experiement,2024.2.1post4,59.722493503923104,2024-10-11 11h21.19.037181 +0530,
33,0,33,[-0.37666666666666665],[-0.20083333333333334],[1],[0],[0],[56.52740849996917],['target'],33,0,33,0,64.39490700000897,,10,64.37740210001357,64.39490700000897,64.39490700000897,0.023023299872875214,120.90518290014006,[-0.37666666666666665],[-0.20083333333333334],[1],[0],[0],[56.52740849996917],['target'],767126,001,2024-10-11_11h21.12.526,visual search experiement,2024.2.1post4,59.722493503923104,2024-10-11 11h21.19.037181 +0530,
34,0,34,[-0.40166666666666667],[0.3416666666666667],[1],[0],[0],[1.251866899896413],['target'],34,0,34,0,120.92583140009083,,5,120.91805400000885,120.92583140009083,120.92583140009083,0.012707800138741732,122.17025150009431,[-0.40166666666666667],[0.3416666666666667],[1],[0],[0],[1.251866899896413],['target'],767126,001,2024-10-11_11h21.12.526,visual search experiement,2024.2.1post4,59.722493503923104,2024-10-11 11h21.19.037181 +0530,
35,0,35,[-0.25666666666666665],[-0.045],[1],[0],[0],[1.214079299941659],['target'],35,0,35,0,122.20668970001861,,10,122.19470810005441,122.20668970001861,122.20668970001861,0.024272300070151687,123.4092554000672,[-0.25666666666666665],[-0.045],[1],[0],[0],[1.214079299941659],['target'],767126,001,2024-10-11_11h21.12.526,visual search experiement,2024.2.1post4,59.722493503923104,2024-10-11 11h21.19.037181 +0530,
36,0,36,[-0.05],[0.18],[1],[0],[0],[1.0096673001535237],['target'],36,0,36,0,123.42966730007902,,5,123.42081560008228,123.42966730007902,123.42966730007902,0.011400700081139803,124.43083980004303,[-0.05],[0.18],[1],[0],[0],[1.0096673001535237],['target'],767126,001,2024-10-11_11h21.12.526,visual search experiement,2024.2.1post4,59.722493503923104,2024-10-11 11h21.19.037181 +0530,
37,0,37,[0.2125],[0.12333333333333334],[1],[0],[0],[1.025875800056383],['target'],37,0,37,0,124.45115269999951,,5,124.44270289991982,124.45115269999951,124.45115269999951,0.011706299846991897,125.46909089991823,[0.2125],[0.12333333333333334],[1],[0],[0],[1.025875800056383],['target'],767126,001,2024-10-11_11h21.12.526,visual search experiement,2024.2.1post4,59.722493503923104,2024-10-11 11h21.19.037181 +0530,
38,0,38,[-0.15666666666666668],[-0.35583333333333333],[1],[0],[0],[1.209210799774155],['target'],38,0,38,0,125.48970800009556,,5,125.48115130001679,125.48970800009556,125.48970800009556,0.011858199955895543,126.69079410005361,[-0.15666666666666668],[-0.35583333333333333],[1],[0],[0],[1.209210799774155],['target'],767126,001,2024-10-11_11h21.12.526,visual search experiement,2024.2.1post4,59.722493503923104,2024-10-11 11h21.19.037181 +0530,
39,0,39,[-0.4575],[-0.028333333333333332],[1],[0],[0],[1.0015714999753982],['target'],39,0,39,0,126.73139910004102,,10,126.7136025999207,126.73139910004102,126.73139910004102,0.022667299956083298,127.7156500001438,[-0.4575],[-0.028333333333333332],[1],[0],[0],[1.0015714999753982],['target'],767126,001,2024-10-11_11h21.12.526,visual search experiement,2024.2.1post4,59.722493503923104,2024-10-11 11h21.19.037181 +0530,
40,0,40,[-0.32],[0.41583333333333333],[1],[0],[0],[5.473939999938011],['target'],40,0,40,0,127.73565940000117,,5,127.72739410004579,127.73565940000117,127.73565940000117,0.011571999872103333,133.20168010005727,[-0.32],[0.41583333333333333],[1],[0],[0],[5.473939999938011],['target'],767126,001,2024-10-11_11h21.12.526,visual search experiement,2024.2.1post4,59.722493503923104,2024-10-11 11h21.19.037181 +0530,
41,0,41,[0.3458333333333333],[-0.455],[1],[0],[0],[1.4585770999547094],['target'],41,0,41,0,133.2217331000138,,5,133.21347860014066,133.2217331000138,133.2217331000138,0.011602400103583932,134.67237080004998,[0.3458333333333333],[-0.455],[1],[0],[0],[1.4585770999547094],['target'],767126,001,2024-10-11_11h21.12.526,visual search experiement,2024.2.1post4,59.722493503923104,2024-10-11 11h21.19.037181 +0530,
42,0,42,[-0.11083333333333334],[0.23833333333333334],[1],[0],[0],[1.0580240001436323],['target'],42,0,42,0,134.6920487000607,,5,134.68440870009363,134.6920487000607,134.6920487000607,0.011865200009196997,135.7428033000324,[-0.11083333333333334],[0.23833333333333334],[1],[0],[0],[1.0580240001436323],['target'],767126,001,2024-10-11_11h21.12.526,visual search experiement,2024.2.1post4,59.722493503923104,2024-10-11 11h21.19.037181 +0530,
43,0,43,[0.37333333333333335],[-0.45416666666666666],[1],[0],[0],[2.4812159000430256],['target'],43,0,43,0,135.78337950003333,,10,135.7681328000035,135.78337950003333,135.78337950003333,0.025166200008243322,138.24966610013507,[0.37333333333333335],[-0.45416666666666666],[1],[0],[0],[2.4812159000430256],['target'],767126,001,2024-10-11_11h21.12.526,visual search experiement,2024.2.1post4,59.722493503923104,2024-10-11 11h21.19.037181 +0530,
44,0,44,[0.36083333333333334],[0.3025],[1],[0],[0],[1.8858316000550985],[None],44,0,44,0,138.27216230006889,,5,138.26316720014438,138.27216230006889,138.27216230006889,0.01333999983035028,140.14933019992895,[0.36083333333333334],[0.3025],[1],[0],[0],[1.8858316000550985],[None],767126,001,2024-10-11_11h21.12.526,visual search experiement,2024.2.1post4,59.722493503923104,2024-10-11 11h21.19.037181 +0530,
45,0,45,[0.31583333333333335],[-0.06916666666666667],[1],[0],[0],[2.0469551999121904],['target'],45,0,45,0,140.18624139996246,,10,140.17247659992427,140.18624139996246,140.18624139996246,0.02301530004478991,142.21996279992163,[0.31583333333333335],[-0.06916666666666667],[1],[0],[0],[2.0469551999121904],['target'],767126,001,2024-10-11_11h21.12.526,visual search experiement,2024.2.1post4,59.722493503923104,2024-10-11 11h21.19.037181 +0530,
46,0,46,[-0.41583333333333333],[-0.4191666666666667],[1],[0],[0],[2.274853900074959],['target'],46,0,46,0,142.2406578999944,,5,142.2317689000629,142.2406578999944,142.2406578999944,0.011566700180992484,144.50696659996174,[-0.41583333333333333],[-0.4191666666666667],[1],[0],[0],[2.274853900074959],['target'],767126,001,2024-10-11_11h21.12.526,visual search experiement,2024.2.1post4,59.722493503923104,2024-10-11 11h21.19.037181 +0530,
47,0,47,[0.29],[0.0008333333333333334],[1],[0],[0],[1.8180188001133502],['target'],47,0,47,0,144.54847509996034,,10,144.5297278999351,144.54847509996034,144.54847509996034,0.022633299930021167,146.34811970009468,[0.29],[0.0008333333333333334],[1],[0],[0],[1.8180188001133502],['target'],767126,001,2024-10-11_11h21.12.526,visual search experiement,2024.2.1post4,59.722493503923104,2024-10-11 11h21.19.037181 +0530,
48,0,48,[0.375],[0.18333333333333332],[1],[0],[0],[1.1585466999094933],['target'],48,0,48,0,146.36798970005475,,5,146.3604723000899,146.36798970005475,146.36798970005475,0.012180399848148227,147.51941860001534,[0.375],[0.18333333333333332],[1],[0],[0],[1.1585466999094933],['target'],767126,001,2024-10-11_11h21.12.526,visual search experiement,2024.2.1post4,59.722493503923104,2024-10-11 11h21.19.037181 +0530,
49,0,49,[-0.39666666666666667],[-0.08083333333333333],[1],[0],[0],[1.200872299959883],['target'],49,0,49,0,147.5591349999886,,10,147.54305500001647,147.5591349999886,147.5591349999886,0.02348909992724657,148.744372199988,[-0.39666666666666667],[-0.08083333333333333],[1],[0],[0],[1.200872299959883],['target'],767126,001,2024-10-11_11h21.12.526,visual search experiement,2024.2.1post4,59.722493503923104,2024-10-11 11h21.19.037181 +0530,
50,0,50,[0.009166666666666667],[0.13916666666666666],[1],[0],[0],[1.0750669999979436],['target'],50,0,50,0,148.76512060011737,,5,148.75755170010962,148.76512060011737,148.76512060011737,0.013011900009587407,149.8330226999242,[0.009166666666666667],[0.13916666666666666],[1],[0],[0],[1.0750669999979436],['target'],767126,001,2024-10-11_11h21.12.526,visual search experiement,2024.2.1post4,59.722493503923104,2024-10-11 11h21.19.037181 +0530,
51,0,51,[-0.3458333333333333],[-0.06916666666666667],[1],[0],[0],[0.9424179999623448],['target'],51,0,51,0,149.85517090000212,,5,149.84639800013974,149.85517090000212,149.85517090000212,0.013242100132629275,150.7891585000325,[-0.3458333333333333],[-0.06916666666666667],[1],[0],[0],[0.9424179999623448],['target'],767126,001,2024-10-11_11h21.12.526,visual search experiement,2024.2.1post4,59.722493503923104,2024-10-11 11h21.19.037181 +0530,
52,0,52,[-0.30416666666666664],[0.2866666666666667],[1],[0],[0],[1.2782711999025196],['target'],52,0,52,0,150.83046480012126,,10,150.8121225000359,150.83046480012126,150.83046480012126,0.022843899903818965,152.09076489997096,[-0.30416666666666664],[0.2866666666666667],[1],[0],[0],[1.2782711999025196],['target'],767126,001,2024-10-11_11h21.12.526,visual search experiement,2024.2.1post4,59.722493503923104,2024-10-11 11h21.19.037181 +0530,
53,0,53,[-0.38166666666666665],[0.14166666666666666],[1],[0],[0],[0.7963364999741316],['target'],53,0,53,0,152.12843520008028,,10,152.11600090004504,152.12843520008028,152.12843520008028,0.025031400145962834,152.91265360009857,[-0.38166666666666665],[0.14166666666666666],[1],[0],[0],[0.7963364999741316],['target'],767126,001,2024-10-11_11h21.12.526,visual search experiement,2024.2.1post4,59.722493503923104,2024-10-11 11h21.19.037181 +0530,
54,0,54,[0.4325],[0.3283333333333333],[1],[0],[0],[1.7145265999715775],['target'],54,0,54,0,152.95376339997165,,10,152.93976889993064,152.95376339997165,152.95376339997165,0.026991899823769927,154.6546048000455,[0.4325],[0.3283333333333333],[1],[0],[0],[1.7145265999715775],['target'],767126,001,2024-10-11_11h21.12.526,visual search experiement,2024.2.1post4,59.722493503923104,2024-10-11 11h21.19.037181 +0530,
55,0,55,[0.0875],[0.1875],[1],[0],[0],[2.084408499998972],['target'],55,0,55,0,154.69491550000384,,10,154.67723769997247,154.69491550000384,154.69491550000384,0.022490400122478604,156.76202740008011,[0.0875],[0.1875],[1],[0],[0],[2.084408499998972],['target'],767126,001,2024-10-11_11h21.12.526,visual search experiement,2024.2.1post4,59.722493503923104,2024-10-11 11h21.19.037181 +0530,
56,0,56,[0.0075],[-0.28583333333333333],[1],[0],[0],[1.6008802999276668],[None],56,0,56,0,156.80278469994664,,10,156.78487540013157,156.80278469994664,156.80278469994664,0.022677799919620156,158.38609850010835,[0.0075],[-0.28583333333333333],[1],[0],[0],[1.6008802999276668],[None],767126,001,2024-10-11_11h21.12.526,visual search experiement,2024.2.1post4,59.722493503923104,2024-10-11 11h21.19.037181 +0530,
57,0,57,[-0.030833333333333334],[-0.3075],[1],[0],[0],[0.7675677000079304],['target'],57,0,57,0,158.4263424000237,,10,158.40991290006787,158.4263424000237,158.4263424000237,0.023666399996727705,159.1778116999194,[-0.030833333333333334],[-0.3075],[1],[0],[0],[0.7675677000079304],['target'],767126,001,2024-10-11_11h21.12.526,visual search experiement,2024.2.1post4,59.722493503923104,2024-10-11 11h21.19.037181 +0530,
58,0,58,[0.3491666666666667],[-0.4008333333333333],[1],[0],[0],[1.7664160998538136],['target'],58,0,58,0,159.21792050008662,,10,159.20188189996406,159.21792050008662,159.21792050008662,0.023923899978399277,160.96877279994078,[0.3491666666666667],[-0.4008333333333333],[1],[0],[0],[1.7664160998538136],['target'],767126,001,2024-10-11_11h21.12.526,visual search experiement,2024.2.1post4,59.722493503923104,2024-10-11 11h21.19.037181 +0530,
59,0,59,[-0.3466666666666667],[0.10666666666666667],[1],[0],[0],[1.4587258000392467],['target'],59,0,59,0,160.99108369997703,,5,160.98275110009126,160.99108369997703,160.99108369997703,0.013760400004684925,162.4418461001478,[-0.3466666666666667],[0.10666666666666667],[1],[0],[0],[1.4587258000392467],['target'],767126,001,2024-10-11_11h21.12.526,visual search experiement,2024.2.1post4,59.722493503923104,2024-10-11 11h21.19.037181 +0530,
60,0,60,[0.44916666666666666],[0.415],[1],[0],[0],[3.4776401999406517],['target'],60,0,60,0,162.48239000001922,,10,162.4642483999487,162.48239000001922,162.48239000001922,0.02228179993107915,165.94224060000852,[0.44916666666666666],[0.415],[1],[0],[0],[3.4776401999406517],['target'],767126,001,2024-10-11_11h21.12.526,visual search experiement,2024.2.1post4,59.722493503923104,2024-10-11 11h21.19.037181 +0530,
61,0,61,[0.43583333333333335],[-0.3641666666666667],[1],[0],[0],[1.9848237000405788],['target'],61,0,61,0,165.97227209992707,,5,165.95457029994577,165.97227209992707,165.97227209992707,0.012148499954491854,167.93972459994256,[0.43583333333333335],[-0.3641666666666667],[1],[0],[0],[1.9848237000405788],['target'],767126,001,2024-10-11_11h21.12.526,visual search experiement,2024.2.1post4,59.722493503923104,2024-10-11 11h21.19.037181 +0530,
62,0,62,[-0.4091666666666667],[-0.3358333333333333],[1],[0],[0],[1.7410599999129772],['target'],62,0,62,0,167.95998189994134,,5,167.9514381000772,167.95998189994134,167.95998189994134,0.011589600006118417,169.69288420001976,[-0.4091666666666667],[-0.3358333333333333],[1],[0],[0],[1.7410599999129772],['target'],767126,001,2024-10-11_11h21.12.526,visual search experiement,2024.2.1post4,59.722493503923104,2024-10-11 11h21.19.037181 +0530,
63,0,63,[0.2633333333333333],[0.1225],[1],[0],[0],[9.497281800024211],['target'],63,0,63,0,169.73367940005846,,10,169.71648470009677,169.73367940005846,169.73367940005846,0.02346709999255836,179.21412020013668,[0.2633333333333333],[0.1225],[1],[0],[0],[9.497281800024211],['target'],767126,001,2024-10-11_11h21.12.526,visual search experiement,2024.2.1post4,59.722493503923104,2024-10-11 11h21.19.037181 +0530,
64,0,64,[-0.105],[-0.30833333333333335],[1],[0],[0],[1.2249710999894887],['target'],64,0,64,0,179.2354004001245,,5,179.2277884001378,179.2354004001245,179.2354004001245,0.01351710013113916,180.45313520007767,[-0.105],[-0.30833333333333335],[1],[0],[0],[1.2249710999894887],['target'],767126,001,2024-10-11_11h21.12.526,visual search experiement,2024.2.1post4,59.722493503923104,2024-10-11 11h21.19.037181 +0530,
65,0,65,[0.2866666666666667],[-0.24166666666666667],[1],[0],[0],[1.4824771999847144],['target'],65,0,65,0,180.4932673999574,,10,180.477737700101,180.4932673999574,180.4932673999574,0.024452599929645658,181.96054810006171,[0.2866666666666667],[-0.24166666666666667],[1],[0],[0],[1.4824771999847144],['target'],767126,001,2024-10-11_11h21.12.526,visual search experiement,2024.2.1post4,59.722493503923104,2024-10-11 11h21.19.037181 +0530,
66,0,66,[0.17666666666666667],[0.24083333333333334],[1],[0],[0],[1.2681474999990314],['target'],66,0,66,0,181.97955729998648,,5,181.97206129995175,181.97955729998648,181.97955729998648,0.01136390003375709,183.2405155999586,[0.17666666666666667],[0.24083333333333334],[1],[0],[0],[1.2681474999990314],['target'],767126,001,2024-10-11_11h21.12.526,visual search experiement,2024.2.1post4,59.722493503923104,2024-10-11 11h21.19.037181 +0530,
67,0,67,[-0.415],[0.5],[1],[0],[0],[4.26513439998962],['target'],67,0,67,0,183.27040140004829,,5,183.25450489996,183.27040140004829,183.27040140004829,0.013811900047585368,187.52000789996237,[-0.415],[0.5],[1],[0],[0],[4.26513439998962],['target'],767126,001,2024-10-11_11h21.12.526,visual search experiement,2024.2.1post4,59.722493503923104,2024-10-11 11h21.19.037181 +0530,
68,0,68,[-0.014166666666666666],[-0.295],[1],[0],[0],[1.5584527999162674],['target'],68,0,68,0,187.53997389995493,,5,187.53177020000294,187.53997389995493,187.53997389995493,0.011635199887678027,189.09057449991815,[-0.014166666666666666],[-0.295],[1],[0],[0],[1.5584527999162674],['target'],767126,001,2024-10-11_11h21.12.526,visual search experiement,2024.2.1post4,59.722493503923104,2024-10-11 11h21.19.037181 +0530,
69,0,69,[0.2866666666666667],[-0.041666666666666664],[1],[0],[0],[1.9474090000148863],['target'],69,0,69,0,189.13057209993713,,10,189.11685819993727,189.13057209993713,189.13057209993713,0.02614460000768304,191.0646275000181,[0.2866666666666667],[-0.041666666666666664],[1],[0],[0],[1.9474090000148863],['target'],767126,001,2024-10-11_11h21.12.526,visual search experiement,2024.2.1post4,59.722493503923104,2024-10-11 11h21.19.037181 +0530,
70,0,70,[0.4575],[0.3383333333333333],[1],[0],[0],[2.1010851999744773],['target'],70,0,70,0,191.10587140009739,,10,191.08740080008283,191.10587140009739,191.10587140009739,0.022573400055989623,193.1888250000775,[0.4575],[0.3383333333333333],[1],[0],[0],[2.1010851999744773],['target'],767126,001,2024-10-11_11h21.12.526,visual search experiement,2024.2.1post4,59.722493503923104,2024-10-11 11h21.19.037181 +0530,
71,0,71,[0.14083333333333334],[-0.0175],[1],[0],[0],[1.0412288000807166],['target'],71,0,71,0,193.20803650002927,,5,193.20058990013786,193.20803650002927,193.20803650002927,0.01158429984934628,194.2421583000105,[0.14083333333333334],[-0.0175],[1],[0],[0],[1.0412288000807166],['target'],767126,001,2024-10-11_11h21.12.526,visual search experiement,2024.2.1post4,59.722493503923104,2024-10-11 11h21.19.037181 +0530,
72,0,72,[0.155],[-0.30583333333333335],[1],[0],[0],[1.0848680001217872],['target'],72,0,72,0,194.2837134001311,,10,194.26481249998324,194.2837134001311,194.2837134001311,0.022505100117996335,195.35000189999118,[0.155],[-0.30583333333333335],[1],[0],[0],[1.0848680001217872],['target'],767126,001,2024-10-11_11h21.12.526,visual search experiement,2024.2.1post4,59.722493503923104,2024-10-11 11h21.19.037181 +0530,
73,0,73,[-0.3408333333333333],[0.22833333333333333],[1],[0],[0],[1.1930670000147074],['target'],73,0,73,0,195.37123250006698,,5,195.3627341000829,195.37123250006698,195.37123250006698,0.012556899804621935,196.5561095001176,[-0.3408333333333333],[0.22833333333333333],[1],[0],[0],[1.1930670000147074],['target'],767126,001,2024-10-11_11h21.12.526,visual search experiement,2024.2.1post4,59.722493503923104,2024-10-11 11h21.19.037181 +0530,
74,0,74,[0.4691666666666667],[-0.4691666666666667],[1],[0],[0],[2.414096500026062],['target'],74,0,74,0,196.59598630014807,,10,196.58163610007614,196.59598630014807,196.59598630014807,0.02535399980843067,198.99610140011646,[0.4691666666666667],[-0.4691666666666667],[1],[0],[0],[2.414096500026062],['target'],767126,001,2024-10-11_11h21.12.526,visual search experiement,2024.2.1post4,59.722493503923104,2024-10-11 11h21.19.037181 +0530,
75,0,75,[0.2866666666666667],[0.2941666666666667],[1],[0],[0],[1.4592463001608849],['target'],75,0,75,0,199.01604060013779,,5,199.00784839992411,199.01604060013779,199.01604060013779,0.011574400123208761,200.46759869996458,[0.2866666666666667],[0.2941666666666667],[1],[0],[0],[1.4592463001608849],['target'],767126,001,2024-10-11_11h21.12.526,visual search experiement,2024.2.1post4,59.722493503923104,2024-10-11 11h21.19.037181 +0530,
76,0,76,[0.3566666666666667],[0.35583333333333333],[1],[0],[0],[2.247517100069672],['target'],76,0,76,0,200.5066444000695,,10,200.49281610012986,200.5066444000695,200.5066444000695,0.02503459993749857,202.74067310011014,[0.3566666666666667],[0.35583333333333333],[1],[0],[0],[2.247517100069672],['target'],767126,001,2024-10-11_11h21.12.526,visual search experiement,2024.2.1post4,59.722493503923104,2024-10-11 11h21.19.037181 +0530,
77,0,77,[0.2833333333333333],[0.19416666666666665],[1],[0],[0],[1.8179574999958277],['target'],77,0,77,0,202.7611990000587,,5,202.7526732000988,202.7611990000587,202.7611990000587,0.01183469989337027,204.5709565000143,[0.2833333333333333],[0.19416666666666665],[1],[0],[0],[1.8179574999958277],['target'],767126,001,2024-10-11_11h21.12.526,visual search experiement,2024.2.1post4,59.722493503923104,2024-10-11 11h21.19.037181 +0530,
78,0,78,[-0.4425],[0.08666666666666667],[1],[0],[0],[2.397739800158888],['target'],78,0,78,0,204.60931070009246,,10,204.59536359994672,204.60931070009246,204.60931070009246,0.02426419989205897,206.993604300078,[-0.4425],[0.08666666666666667],[1],[0],[0],[2.397739800158888],['target'],767126,001,2024-10-11_11h21.12.526,visual search experiement,2024.2.1post4,59.722493503923104,2024-10-11 11h21.19.037181 +0530,
79,0,79,[-0.46416666666666667],[-0.16833333333333333],[1],[0],[0],[1.3161859998945147],['target'],79,0,79,0,207.03333929996006,,10,207.01763730007224,207.03333929996006,207.03333929996006,0.02387790009379387,208.3341492000036,[-0.46416666666666667],[-0.16833333333333333],[1],[0],[0],[1.3161859998945147],['target'],767126,001,2024-10-11_11h21.12.526,visual search experiement,2024.2.1post4,59.722493503923104,2024-10-11 11h21.19.037181 +0530,
80,0,80,[0.35333333333333333],[-0.35833333333333334],[1],[0],[0],[1.5092998000327498],['target'],80,0,80,0,208.35610490012914,,5,208.3473414001055,208.35610490012914,208.35610490012914,0.013047900050878525,209.8570872999262,[0.35333333333333333],[-0.35833333333333334],[1],[0],[0],[1.5092998000327498],['target'],767126,001,2024-10-11_11h21.12.526,visual search experiement,2024.2.1post4,59.722493503923104,2024-10-11 11h21.19.037181 +0530,
81,0,81,[-0.26916666666666667],[0.4708333333333333],[1],[0],[0],[1.890651399968192],['target'],81,0,81,0,209.89678060007282,,10,209.88105969992466,209.89678060007282,209.89678060007282,0.02382300002500415,211.77209350001067,[-0.26916666666666667],[0.4708333333333333],[1],[0],[0],[1.890651399968192],['target'],767126,001,2024-10-11_11h21.12.526,visual search experiement,2024.2.1post4,59.722493503923104,2024-10-11 11h21.19.037181 +0530,
82,0,82,[-0.024166666666666666],[-0.3725],[1],[0],[0],[2.1965600000694394],['target'],82,0,82,0,211.81284569995478,,10,211.79933309997432,211.81284569995478,211.81284569995478,0.02707950002513826,213.99624829995446,[-0.024166666666666666],[-0.3725],[1],[0],[0],[2.1965600000694394],['target'],767126,001,2024-10-11_11h21.12.526,visual search experiement,2024.2.1post4,59.722493503923104,2024-10-11 11h21.19.037181 +0530,
83,0,83,[-0.08666666666666667],[0.1075],[1],[0],[0],[1.492606399813667],['target'],83,0,83,0,214.01704369997606,,5,214.00888040009886,214.01704369997606,214.01704369997606,0.012481799814850092,215.50184120004997,[-0.08666666666666667],[0.1075],[1],[0],[0],[1.492606399813667],['target'],767126,001,2024-10-11_11h21.12.526,visual search experiement,2024.2.1post4,59.722493503923104,2024-10-11 11h21.19.037181 +0530,
84,0,84,[-0.32083333333333336],[0.41833333333333333],[1],[0],[0],[3.679787800181657],['target'],84,0,84,0,215.54117719992064,,10,215.52717619994655,215.54117719992064,215.54117719992064,0.025183300022035837,219.2073301000055,[-0.32083333333333336],[0.41833333333333333],[1],[0],[0],[3.679787800181657],['target'],767126,001,2024-10-11_11h21.12.526,visual search experiement,2024.2.1post4,59.722493503923104,2024-10-11 11h21.19.037181 +0530,
85,0,85,[0.09166666666666666],[0.4683333333333333],[1],[0],[0],[1.153185100061819],['target'],85,0,85,0,219.24838260002434,,10,219.23048890009522,219.24838260002434,219.24838260002434,0.022996599785983562,220.38401759997942,[0.09166666666666666],[0.4683333333333333],[1],[0],[0],[1.153185100061819],['target'],767126,001,2024-10-11_11h21.12.526,visual search experiement,2024.2.1post4,59.722493503923104,2024-10-11 11h21.19.037181 +0530,
86,0,86,[-0.45916666666666667],[-0.4241666666666667],[1],[0],[0],[2.4636091999709606],['target'],86,0,86,0,220.4225056001451,,10,220.40900760004297,220.4225056001451,220.4225056001451,0.02477049990557134,222.8729479999747,[-0.45916666666666667],[-0.4241666666666667],[1],[0],[0],[2.4636091999709606],['target'],767126,001,2024-10-11_11h21.12.526,visual search experiement,2024.2.1post4,59.722493503923104,2024-10-11 11h21.19.037181 +0530,
87,0,87,[-0.41583333333333333],[0.3525],[1],[0],[0],[1.4441420999355614],['target'],87,0,87,0,222.896267300006,,5,222.88538979995064,222.896267300006,222.896267300006,0.012293899897485971,224.32986410008743,[-0.41583333333333333],[0.3525],[1],[0],[0],[1.4441420999355614],['target'],767126,001,2024-10-11_11h21.12.526,visual search experiement,2024.2.1post4,59.722493503923104,2024-10-11 11h21.19.037181 +0530,
88,0,88,[0.016666666666666666],[-0.42083333333333334],[1],[0],[0],[1.6252990998327732],['target'],88,0,88,0,224.35169839998707,,5,224.34310820000246,224.35169839998707,224.35169839998707,0.013084999984130263,225.96878350013867,[0.016666666666666666],[-0.42083333333333334],[1],[0],[0],[1.6252990998327732],['target'],767126,001,2024-10-11_11h21.12.526,visual search experiement,2024.2.1post4,59.722493503923104,2024-10-11 11h21.19.037181 +0530,
89,0,89,[0.475],[0.2783333333333333],[1],[0],[0],[1.7353083998896182],['target'],89,0,89,0,225.98959419992752,,5,225.98137179994956,225.98959419992752,225.98959419992752,0.012454300187528133,227.71718819998205,[0.475],[0.2783333333333333],[1],[0],[0],[1.7353083998896182],['target'],767126,001,2024-10-11_11h21.12.526,visual search experiement,2024.2.1post4,59.722493503923104,2024-10-11 11h21.19.037181 +0530,
90,0,90,[-0.3908333333333333],[0.005],[1],[0],[0],[1.6570911000017077],['target'],90,0,90,0,227.75426320009865,,10,227.7417878000997,227.75426320009865,227.75426320009865,0.024449100019410253,229.39924119994976,[-0.3908333333333333],[0.005],[1],[0],[0],[1.6570911000017077],['target'],767126,001,2024-10-11_11h21.12.526,visual search experiement,2024.2.1post4,59.722493503923104,2024-10-11 11h21.19.037181 +0530,
91,0,91,[-0.4766666666666667],[-0.06916666666666667],[1],[0],[0],[8.310397800058126],['target'],91,0,91,0,229.43570100003853,,10,229.42349590011872,229.43570100003853,229.43570100003853,0.024076599860563874,237.73427219991572,[-0.4766666666666667],[-0.06916666666666667],[1],[0],[0],[8.310397800058126],['target'],767126,001,2024-10-11_11h21.12.526,visual search experiement,2024.2.1post4,59.722493503923104,2024-10-11 11h21.19.037181 +0530,
92,0,92,[0.48333333333333334],[-0.165],[1],[0],[0],[9.521859899861738],['target'],92,0,92,0,237.7541561999824,,5,237.7464163999539,237.7541561999824,237.7541561999824,0.011997600086033344,247.26862629991956,[0.48333333333333334],[-0.165],[1],[0],[0],[9.521859899861738],['target'],767126,001,2024-10-11_11h21.12.526,visual search experiement,2024.2.1post4,59.722493503923104,2024-10-11 11h21.19.037181 +0530,
93,0,93,[-0.26416666666666666],[0.4275],[1],[0],[0],[1.7475715999025851],['target'],93,0,93,0,247.30846219998784,,10,247.29462009994313,247.30846219998784,247.30846219998784,0.025847399840131402,249.04257660009898,[-0.26416666666666666],[0.4275],[1],[0],[0],[1.7475715999025851],['target'],767126,001,2024-10-11_11h21.12.526,visual search experiement,2024.2.1post4,59.722493503923104,2024-10-11 11h21.19.037181 +0530,
94,0,94,[-0.011666666666666667],[0.39166666666666666],[1],[0],[0],[5.63996719988063],['target'],94,0,94,0,249.06245650001802,,5,249.05415720003657,249.06245650001802,249.06245650001802,0.011431599967181683,254.69449270004407,[-0.011666666666666667],[0.39166666666666666],[1],[0],[0],[5.63996719988063],['target'],767126,001,2024-10-11_11h21.12.526,visual search experiement,2024.2.1post4,59.722493503923104,2024-10-11 11h21.19.037181 +0530,
95,0,95,[-0.2825],[0.33666666666666667],[1],[0],[0],[6.195970699889585],['target'],95,0,95,0,254.73454520013183,,10,254.72102009993978,254.73454520013183,254.73454520013183,0.02637140010483563,260.9175039001275,[-0.2825],[0.33666666666666667],[1],[0],[0],[6.195970699889585],['target'],767126,001,2024-10-11_11h21.12.526,visual search experiement,2024.2.1post4,59.722493503923104,2024-10-11 11h21.19.037181 +0530,
96,0,96,[-0.056666666666666664],[0.0525],[1],[0],[0],[8.182526100194082],['target'],96,0,96,0,260.93885980010964,,5,260.9297092000488,260.93885980010964,260.93885980010964,0.012049299897626042,269.1125845001079,[-0.056666666666666664],[0.0525],[1],[0],[0],[8.182526100194082],['target'],767126,001,2024-10-11_11h21.12.526,visual search experiement,2024.2.1post4,59.722493503923104,2024-10-11 11h21.19.037181 +0530,
97,0,97,[0.3491666666666667],[-0.465],[1],[0],[0],[3.7192715001292527],['target'],97,0,97,0,269.14248539996333,,5,269.1249516000971,269.14248539996333,269.14248539996333,0.012238699942827225,272.8446726000402,[0.3491666666666667],[-0.465],[1],[0],[0],[3.7192715001292527],['target'],767126,001,2024-10-11_11h21.12.526,visual search experiement,2024.2.1post4,59.722493503923104,2024-10-11 11h21.19.037181 +0530,
98,0,98,[-0.3616666666666667],[0.44166666666666665],[1],[0],[0],[1.3343395998235792],['target'],98,0,98,0,272.87480999995023,,5,272.8566958999727,272.87480999995023,272.87480999995023,0.011891999980434775,274.19136729999445,[-0.3616666666666667],[0.44166666666666665],[1],[0],[0],[1.3343395998235792],['target'],767126,001,2024-10-11_11h21.12.526,visual search experiement,2024.2.1post4,59.722493503923104,2024-10-11 11h21.19.037181 +0530,
99,0,99,[0.1775],[-0.13083333333333333],[1],[0],[0],[1.3156141999643296],['target'],99,0,99,0,274.2324481999967,,10,274.216908399947,274.2324481999967,274.2324481999967,0.02541710017248988,275.53284860006534,[0.1775],[-0.13083333333333333],[1],[0],[0],[1.3156141999643296],['target'],767126,001,2024-10-11_11h21.12.526,visual search experiement,2024.2.1post4,59.722493503923104,2024-10-11 11h21.19.037181 +0530,
100,0,100,[0.0275],[0.2525],[1],[0],[0],[1.2413645000196993],['target'],100,0,100,0,275.55272940010764,,5,275.5444887999911,275.55272940010764,275.55272940010764,0.011480299988761544,276.786186600104,[0.0275],[0.2525],[1],[0],[0],[1.2413645000196993],['target'],767126,001,2024-10-11_11h21.12.526,visual search experiement,2024.2.1post4,59.722493503923104,2024-10-11 11h21.19.037181 +0530,
101,0,101,[0.31166666666666665],[-0.14],[1],[0],[0],[1.7117502000182867],['target'],101,0,101,0,276.82731089997105,,10,276.80857519991696,276.82731089997105,276.82731089997105,0.0222465000115335,278.5206265000161,[0.31166666666666665],[-0.14],[1],[0],[0],[1.7117502000182867],['target'],767126,001,2024-10-11_11h21.12.526,visual search experiement,2024.2.1post4,59.722493503923104,2024-10-11 11h21.19.037181 +0530,
102,0,102,[0.25333333333333335],[0.22166666666666668],[1],[0],[0],[16.57850669999607],['target'],102,0,102,0,278.5511660000775,,5,278.5336681001354,278.5511660000775,278.5511660000775,0.012858300004154444,295.11250569997355,[0.25333333333333335],[0.22166666666666668],[1],[0],[0],[16.57850669999607],['target'],767126,001,2024-10-11_11h21.12.526,visual search experiement,2024.2.1post4,59.722493503923104,2024-10-11 11h21.19.037181 +0530,
103,0,103,[-0.19916666666666666],[-0.435],[1],[0],[0],[1.7758444999344647],['target'],103,0,103,0,295.13336189999245,,5,295.12438179994933,295.13336189999245,295.13336189999245,0.011731799924746156,296.9006739000324,[-0.19916666666666666],[-0.435],[1],[0],[0],[1.7758444999344647],['target'],767126,001,2024-10-11_11h21.12.526,visual search experiement,2024.2.1post4,59.722493503923104,2024-10-11 11h21.19.037181 +0530,
104,0,104,[0.13083333333333333],[0.08916666666666667],[1],[0],[0],[3.825955400010571],['target'],104,0,104,0,296.940941600129,,10,296.9240268000867,296.940941600129,296.940941600129,0.023210000013932586,300.750375200063,[0.13083333333333333],[0.08916666666666667],[1],[0],[0],[3.825955400010571],['target'],767126,001,2024-10-11_11h21.12.526,visual search experiement,2024.2.1post4,59.722493503923104,2024-10-11 11h21.19.037181 +0530,
105,0,105,[0.005],[-0.375],[1],[0],[0],[1.2623071998823434],['target'],105,0,105,0,300.78099499992095,,5,300.76216099993326,300.78099499992095,300.78099499992095,0.011625099927186966,302.024816500023,[0.005],[-0.375],[1],[0],[0],[1.2623071998823434],['target'],767126,001,2024-10-11_11h21.12.526,visual search experiement,2024.2.1post4,59.722493503923104,2024-10-11 11h21.19.037181 +0530,
106,0,106,[-0.3541666666666667],[0.295],[1],[0],[0],[1.2356533999554813],['target'],106,0,106,0,302.05527979996987,,5,302.03628080012277,302.05527979996987,302.05527979996987,0.011339900083839893,303.272256599972,[-0.3541666666666667],[0.295],[1],[0],[0],[1.2356533999554813],['target'],767126,001,2024-10-11_11h21.12.526,visual search experiement,2024.2.1post4,59.722493503923104,2024-10-11 11h21.19.037181 +0530,
107,0,107,[-0.025],[-0.315],[1],[0],[0],[1.562795199919492],['target'],107,0,107,0,303.31380410003476,,10,303.2945107000414,303.31380410003476,303.31380410003476,0.02210860000923276,304.85776920011267,[-0.025],[-0.315],[1],[0],[0],[1.562795199919492],['target'],767126,001,2024-10-11_11h21.12.526,visual search experiement,2024.2.1post4,59.722493503923104,2024-10-11 11h21.19.037181 +0530,
108,0,108,[0.013333333333333334],[-0.3641666666666667],[1],[0],[0],[1.1133410001639277],['target'],108,0,108,0,304.8926969000604,,10,304.88021140010096,304.8926969000604,304.8926969000604,0.022283899830654263,305.99393479991704,[0.013333333333333334],[-0.3641666666666667],[1],[0],[0],[1.1133410001639277],['target'],767126,001,2024-10-11_11h21.12.526,visual search experiement,2024.2.1post4,59.722493503923104,2024-10-11 11h21.19.037181 +0530,
109,0,109,[0.3275],[-0.3616666666666667],[1],[0],[0],[1.5751821999438107],['target'],109,0,109,0,306.0133495000191,,5,306.0054492999334,306.0133495000191,306.0133495000191,0.011365900048986077,307.5809633000754,[0.3275],[-0.3616666666666667],[1],[0],[0],[1.5751821999438107],['target'],767126,001,2024-10-11_11h21.12.526,visual search experiement,2024.2.1post4,59.722493503923104,2024-10-11 11h21.19.037181 +0530,
110,0,110,[-0.5083333333333333],[-0.15833333333333333],[1],[0],[0],[1.2699312998447567],['target'],110,0,110,0,307.62201340007596,,10,307.6030471001286,307.62201340007596,307.62201340007596,0.021963999839499593,308.873341599945,[-0.5083333333333333],[-0.15833333333333333],[1],[0],[0],[1.2699312998447567],['target'],767126,001,2024-10-11_11h21.12.526,visual search experiement,2024.2.1post4,59.722493503923104,2024-10-11 11h21.19.037181 +0530,
111,0,111,[-0.3675],[0.08333333333333333],[1],[0],[0],[0.9197285000700504],[None],111,0,111,0,308.9041331000626,,5,308.8847419000231,308.9041331000626,308.9041331000626,0.011249300092458725,309.80482660001144,[-0.3675],[0.08333333333333333],[1],[0],[0],[0.9197285000700504],[None],767126,001,2024-10-11_11h21.12.526,visual search experiement,2024.2.1post4,59.722493503923104,2024-10-11 11h21.19.037181 +0530,
112,0,112,[-0.3675],[0.08333333333333333],[1],[0],[0],[1.1646252998616546],[None],112,0,112,0,309.8449296001345,,10,309.83086710004136,309.8449296001345,309.8449296001345,0.025890700053423643,310.9958317000419,[-0.3675],[0.08333333333333333],[1],[0],[0],[1.1646252998616546],[None],767126,001,2024-10-11_11h21.12.526,visual search experiement,2024.2.1post4,59.722493503923104,2024-10-11 11h21.19.037181 +0530,
113,0,113,[-0.3675],[0.08333333333333333],[1],[0],[0],[0.1661908000241965],[None],113,0,113,0,311.0359159000218,,10,311.02104260004126,311.0359159000218,311.0359159000218,0.025062100030481815,311.1875776001252,[-0.3675],[0.08333333333333333],[1],[0],[0],[0.1661908000241965],[None],767126,001,2024-10-11_11h21.12.526,visual search experiement,2024.2.1post4,59.722493503923104,2024-10-11 11h21.19.037181 +0530,
114,0,114,[-0.3675],[0.08333333333333333],[1],[0],[0],[0.26065079984255135],[None],114,0,114,0,311.20845509995706,,5,311.19970240001567,311.20845509995706,311.20845509995706,0.011934999842196703,311.46074200002477,[-0.3675],[0.08333333333333333],[1],[0],[0],[0.26065079984255135],[None],767126,001,2024-10-11_11h21.12.526,visual search experiement,2024.2.1post4,59.722493503923104,2024-10-11 11h21.19.037181 +0530,
115,0,115,[-0.3675],[0.08333333333333333],[1],[0],[0],[0.39395390008576214],[None],115,0,115,0,311.4818237000145,,5,311.47262430004776,311.4818237000145,311.4818237000145,0.011672599939629436,311.8668990000151,[-0.3675],[0.08333333333333333],[1],[0],[0],[0.39395390008576214],[None],767126,001,2024-10-11_11h21.12.526,visual search experiement,2024.2.1post4,59.722493503923104,2024-10-11 11h21.19.037181 +0530,
116,0,116,[0.4025],[0.07166666666666667],[1],[0],[0],[2.109835899900645],['target'],116,0,116,0,311.88782289996743,,5,311.87940360000357,311.88782289996743,311.88782289996743,0.012380799977108836,313.98987150005996,[0.4025],[0.07166666666666667],[1],[0],[0],[2.109835899900645],['target'],767126,001,2024-10-11_11h21.12.526,visual search experiement,2024.2.1post4,59.722493503923104,2024-10-11 11h21.19.037181 +0530,
117,0,117,[-0.08416666666666667],[0.4925],[1],[0],[0],[1.4512312000151724],['target'],117,0,117,0,314.01174010010436,,5,314.00381090003066,314.01174010010436,314.01174010010436,0.013699600007385015,315.4554194000084,[-0.08416666666666667],[0.4925],[1],[0],[0],[1.4512312000151724],['target'],767126,001,2024-10-11_11h21.12.526,visual search experiement,2024.2.1post4,59.722493503923104,2024-10-11 11h21.19.037181 +0530,
118,0,118,[0.18],[-0.23333333333333334],[1],[0],[0],[2.155645300168544],['target'],118,0,118,0,315.4905954001006,,10,315.47810279997066,315.4905954001006,315.4905954001006,0.022560899844393134,317.6341291000135,[0.18],[-0.23333333333333334],[1],[0],[0],[2.155645300168544],['target'],767126,001,2024-10-11_11h21.12.526,visual search experiement,2024.2.1post4,59.722493503923104,2024-10-11 11h21.19.037181 +0530,
119,0,119,[-0.018333333333333333],[0.475],[1],[0],[0],[2.362635400146246],['target'],119,0,119,0,317.66885680006817,,10,317.65662209992297,317.66885680006817,317.66885680006817,0.02234099991619587,320.0197459999472,[-0.018333333333333333],[0.475],[1],[0],[0],[2.362635400146246],['target'],767126,001,2024-10-11_11h21.12.526,visual search experiement,2024.2.1post4,59.722493503923104,2024-10-11 11h21.19.037181 +0530,
120,0,120,[-0.4483333333333333],[0.06583333333333333],[1],[0],[0],[1.3421688000671566],['target'],120,0,120,0,320.0398313999176,,5,320.03133270004764,320.0398313999176,320.0398313999176,0.011433500098064542,321.3739941001404,[-0.4483333333333333],[0.06583333333333333],[1],[0],[0],[1.3421688000671566],['target'],767126,001,2024-10-11_11h21.12.526,visual search experiement,2024.2.1post4,59.722493503923104,2024-10-11 11h21.19.037181 +0530,
121,0,121,[0.041666666666666664],[0.0825],[1],[0],[0],[1.317728699883446],['target'],121,0,121,0,321.41418840014376,,10,321.3968867000658,321.41418840014376,321.41418840014376,0.022746399976313114,322.71498930011876,[0.041666666666666664],[0.0825],[1],[0],[0],[1.317728699883446],['target'],767126,001,2024-10-11_11h21.12.526,visual search experiement,2024.2.1post4,59.722493503923104,2024-10-11 11h21.19.037181 +0530,
122,0,122,[0.023333333333333334],[-0.0725],[1],[0],[0],[1.1020020998548716],['target'],122,0,122,0,322.735826899996,,5,322.7273655999452,322.735826899996,322.735826899996,0.01222190004773438,323.8297411000822,[0.023333333333333334],[-0.0725],[1],[0],[0],[1.1020020998548716],['target'],767126,001,2024-10-11_11h21.12.526,visual search experiement,2024.2.1post4,59.722493503923104,2024-10-11 11h21.19.037181 +0530,
123,0,123,[-0.21916666666666668],[-0.32166666666666666],[1],[0],[0],[1.2002801999915391],['target'],123,0,123,0,323.86014230013825,,5,323.84346599993296,323.86014230013825,323.86014230013825,0.013511399971321225,325.0441451999359,[-0.21916666666666668],[-0.32166666666666666],[1],[0],[0],[1.2002801999915391],['target'],767126,001,2024-10-11_11h21.12.526,visual search experiement,2024.2.1post4,59.722493503923104,2024-10-11 11h21.19.037181 +0530,
124,0,124,[0.43916666666666665],[0.1725],[1],[0],[0],[0.7832728999201208],[None],124,0,124,0,325.08447350002825,,10,325.0690886999946,325.08447350002825,325.08447350002825,0.02478539990261197,325.8526908000931,[0.43916666666666665],[0.1725],[1],[0],[0],[0.7832728999201208],[None],767126,001,2024-10-11_11h21.12.526,visual search experiement,2024.2.1post4,59.722493503923104,2024-10-11 11h21.19.037181 +0530,
125,0,125,[0.43916666666666665],[0.1725],[1],[0],[0],[0.3354339001234621],[None],125,0,125,0,325.89567370014265,,10,325.8770651000086,325.89567370014265,325.89567370014265,0.024225500179454684,326.212803900009,[0.43916666666666665],[0.1725],[1],[0],[0],[0.3354339001234621],[None],767126,001,2024-10-11_11h21.12.526,visual search experiement,2024.2.1post4,59.722493503923104,2024-10-11 11h21.19.037181 +0530,
126,0,126,[0.43916666666666665],[0.1725],[1],[0],[0],[0.350647599902004],[None],126,0,126,0,326.25333119998686,,10,326.23847570014186,326.25333119998686,326.25333119998686,0.025465500075370073,326.5895957001485,[0.43916666666666665],[0.1725],[1],[0],[0],[0.350647599902004],[None],767126,001,2024-10-11_11h21.12.526,visual search experiement,2024.2.1post4,59.722493503923104,2024-10-11 11h21.19.037181 +0530,
127,0,127,[0.15916666666666668],[-0.37916666666666665],[1],[0],[0],[1.1526547998655587],['target'],127,0,127,0,326.60985350003466,,5,326.60110500012524,326.60985350003466,326.60985350003466,0.011339900083839893,327.7540764999576,[0.15916666666666668],[-0.37916666666666665],[1],[0],[0],[1.1526547998655587],['target'],767126,001,2024-10-11_11h21.12.526,visual search experiement,2024.2.1post4,59.722493503923104,2024-10-11 11h21.19.037181 +0530,
128,0,128,[0.2891666666666667],[-0.25083333333333335],[1],[0],[0],[1.3312951000407338],['target'],128,0,128,0,327.7889634000603,,10,327.77680310001597,327.7889634000603,327.7889634000603,0.022607400082051754,329.1084966000635,[0.2891666666666667],[-0.25083333333333335],[1],[0],[0],[1.3312951000407338],['target'],767126,001,2024-10-11_11h21.12.526,visual search experiement,2024.2.1post4,59.722493503923104,2024-10-11 11h21.19.037181 +0530,
129,0,129,[-0.04583333333333333],[0.03666666666666667],[1],[0],[0],[1.2342763000633568],['target'],129,0,129,0,329.1378093000967,,5,329.1220674000215,329.1378093000967,329.1378093000967,0.013403200078755617,330.3566775000654,[-0.04583333333333333],[0.03666666666666667],[1],[0],[0],[1.2342763000633568],['target'],767126,001,2024-10-11_11h21.12.526,visual search experiement,2024.2.1post4,59.722493503923104,2024-10-11 11h21.19.037181 +0530,
130,0,130,[-0.505],[-0.3858333333333333],[1],[0],[0],[1.1925597998779267],['target'],130,0,130,0,330.3778536999598,,5,330.3689369999338,330.3778536999598,330.3778536999598,0.012137100100517273,331.56180909997784,[-0.505],[-0.3858333333333333],[1],[0],[0],[1.1925597998779267],['target'],767126,001,2024-10-11_11h21.12.526,visual search experiement,2024.2.1post4,59.722493503923104,2024-10-11 11h21.19.037181 +0530,
131,0,131,[0.435],[-0.38666666666666666],[1],[0],[0],[1.8841720998752862],['target'],131,0,131,0,331.60221799998544,,10,331.58529469999485,331.60221799998544,331.60221799998544,0.023364700144156814,333.4699655000586,[0.435],[-0.38666666666666666],[1],[0],[0],[1.8841720998752862],['target'],767126,001,2024-10-11_11h21.12.526,visual search experiement,2024.2.1post4,59.722493503923104,2024-10-11 11h21.19.037181 +0530,
132,0,132,[0.18583333333333332],[0.29833333333333334],[1],[0],[0],[1.4991987999528646],['target'],132,0,132,0,333.50997050013393,,10,333.49447029992007,333.50997050013393,333.50997050013393,0.024360100040212274,334.9940082000103,[0.18583333333333332],[0.29833333333333334],[1],[0],[0],[1.4991987999528646],['target'],767126,001,2024-10-11_11h21.12.526,visual search experiement,2024.2.1post4,59.722493503923104,2024-10-11 11h21.19.037181 +0530,
133,0,133,[0.12916666666666668],[-0.01],[1],[0],[0],[1.4671793999150395],['target'],133,0,133,0,335.0341589001473,,10,335.01827519992366,335.0341589001473,335.0341589001473,0.02409329987131059,336.48596790013835,[0.12916666666666668],[-0.01],[1],[0],[0],[1.4671793999150395],['target'],767126,001,2024-10-11_11h21.12.526,visual search experiement,2024.2.1post4,59.722493503923104,2024-10-11 11h21.19.037181 +0530,
134,0,134,[0.04416666666666667],[-0.2791666666666667],[1],[0],[0],[1.3773115000221878],['target'],134,0,134,0,336.5258170000743,,10,336.5087315000128,336.5258170000743,336.5258170000743,0.022529599955305457,337.88640410010703,[0.04416666666666667],[-0.2791666666666667],[1],[0],[0],[1.3773115000221878],['target'],767126,001,2024-10-11_11h21.12.526,visual search experiement,2024.2.1post4,59.722493503923104,2024-10-11 11h21.19.037181 +0530,
135,0,135,[-0.44],[-0.305],[1],[0],[0],[1.412874000146985],['target'],135,0,135,0,337.922328799963,,10,337.90910240006633,337.922328799963,337.922328799963,0.02255739993415773,339.32229189993814,[-0.44],[-0.305],[1],[0],[0],[1.412874000146985],['target'],767126,001,2024-10-11_11h21.12.526,visual search experiement,2024.2.1post4,59.722493503923104,2024-10-11 11h21.19.037181 +0530,
136,0,136,[0.36916666666666664],[0.03],[1],[0],[0],[1.8255803999491036],['target'],136,0,136,0,339.3447177000344,,5,339.33575959992595,339.3447177000344,339.3447177000344,0.013196900021284819,341.16165799996816,[0.36916666666666664],[0.03],[1],[0],[0],[1.8255803999491036],['target'],767126,001,2024-10-11_11h21.12.526,visual search experiement,2024.2.1post4,59.722493503923104,2024-10-11 11h21.19.037181 +0530,
137,0,137,[-0.3275],[0.44416666666666665],[1],[0],[0],[1.9512940000277013],['target'],137,0,137,0,341.18181689991616,,5,341.1731412000954,341.18181689991616,341.18181689991616,0.011360700009390712,343.12484880001284,[-0.3275],[0.44416666666666665],[1],[0],[0],[1.9512940000277013],['target'],767126,001,2024-10-11_11h21.12.526,visual search experiement,2024.2.1post4,59.722493503923104,2024-10-11 11h21.19.037181 +0530,
138,0,138,[-0.13916666666666666],[-0.4033333333333333],[1],[0],[0],[1.870068799937144],['target'],138,0,138,0,343.18075780011714,,10,343.15341220004484,343.18075780011714,343.18075780011714,0.02841389994136989,345.02376540005207,[-0.13916666666666666],[-0.4033333333333333],[1],[0],[0],[1.870068799937144],['target'],767126,001,2024-10-11_11h21.12.526,visual search experiement,2024.2.1post4,59.722493503923104,2024-10-11 11h21.19.037181 +0530,
139,0,139,[0.215],[0.39],[1],[0],[0],[2.022425099974498],['target'],139,0,139,0,345.060869500041,,10,345.0486361000221,345.060869500041,345.060869500041,0.02469260012730956,347.07151179993525,[0.215],[0.39],[1],[0],[0],[2.022425099974498],['target'],767126,001,2024-10-11_11h21.12.526,visual search experiement,2024.2.1post4,59.722493503923104,2024-10-11 11h21.19.037181 +0530,
140,0,140,[-0.03666666666666667],[-0.16583333333333333],[1],[0],[0],[1.6321328000631183],['target'],140,0,140,0,347.1112963000778,,10,347.0976635001134,347.1112963000778,347.1112963000778,0.025938399834558368,348.7301660999656,[-0.03666666666666667],[-0.16583333333333333],[1],[0],[0],[1.6321328000631183],['target'],767126,001,2024-10-11_11h21.12.526,visual search experiement,2024.2.1post4,59.722493503923104,2024-10-11 11h21.19.037181 +0530,
141,0,141,[0.4141666666666667],[-0.25833333333333336],[1],[0],[0],[1.5174543999601156],['target'],141,0,141,0,348.760468600085,,5,348.74208210012875,348.760468600085,348.760468600085,0.011771799996495247,350.259934599977,[0.4141666666666667],[-0.25833333333333336],[1],[0],[0],[1.5174543999601156],['target'],767126,001,2024-10-11_11h21.12.526,visual search experiement,2024.2.1post4,59.722493503923104,2024-10-11 11h21.19.037181 +0530,
142,0,142,[0.2825],[0.13666666666666666],[1],[0],[0],[3.4406021998729557],['target'],142,0,142,0,350.3001735000871,,10,350.2857292999979,350.3001735000871,350.3001735000871,0.025706399930641055,353.726633900078,[0.2825],[0.13666666666666666],[1],[0],[0],[3.4406021998729557],['target'],767126,001,2024-10-11_11h21.12.526,visual search experiement,2024.2.1post4,59.722493503923104,2024-10-11 11h21.19.037181 +0530,
143,0,143,[0.0475],[0.11833333333333333],[1],[0],[0],[1.319282199954614],['target'],143,0,143,0,353.75719189993106,,5,353.7384665000718,353.75719189993106,353.75719189993106,0.011668900027871132,355.0581014000345,[0.0475],[0.11833333333333333],[1],[0],[0],[1.319282199954614],['target'],767126,001,2024-10-11_11h21.12.526,visual search experiement,2024.2.1post4,59.722493503923104,2024-10-11 11h21.19.037181 +0530,
144,0,144,[0.1425],[-0.2683333333333333],[1],[0],[0],[1.5778067999053746],['target'],144,0,144,0,355.098822100088,,10,355.0807791000698,355.098822100088,355.098822100088,0.022543700179085135,356.6589194999542,[0.1425],[-0.2683333333333333],[1],[0],[0],[1.5778067999053746],['target'],767126,001,2024-10-11_11h21.12.526,visual search experiement,2024.2.1post4,59.722493503923104,2024-10-11 11h21.19.037181 +0530,
145,0,145,[0.4816666666666667],[-0.08333333333333333],[1],[0],[0],[2.1620940000284463],['target'],145,0,145,0,356.6938696000725,,10,356.6812120999675,356.6938696000725,356.6938696000725,0.02214369992725551,358.84368890011683,[0.4816666666666667],[-0.08333333333333333],[1],[0],[0],[2.1620940000284463],['target'],767126,001,2024-10-11_11h21.12.526,visual search experiement,2024.2.1post4,59.722493503923104,2024-10-11 11h21.19.037181 +0530,
146,0,146,[-0.28],[-0.27416666666666667],[1],[0],[0],[2.117694100132212],['target'],146,0,146,0,358.88444730010815,,10,358.8663016001228,358.88444730010815,358.88444730010815,0.022372200153768063,360.9844170999713,[-0.28],[-0.27416666666666667],[1],[0],[0],[2.117694100132212],['target'],767126,001,2024-10-11_11h21.12.526,visual search experiement,2024.2.1post4,59.722493503923104,2024-10-11 11h21.19.037181 +0530,
147,0,147,[0.3408333333333333],[0.3516666666666667],[1],[0],[0],[1.7516067000105977],['target'],147,0,147,0,361.0250603000168,,10,361.00656040012836,361.0250603000168,361.0250603000168,0.021923599997535348,362.7585126000922,[0.3408333333333333],[0.3516666666666667],[1],[0],[0],[1.7516067000105977],['target'],767126,001,2024-10-11_11h21.12.526,visual search experiement,2024.2.1post4,59.722493503923104,2024-10-11 11h21.19.037181 +0530,
148,0,148,[-0.4241666666666667],[-0.2683333333333333],[1],[0],[0],[1.8915251998696476],['target'],148,0,148,0,362.7791536001023,,5,362.7713669000659,362.7791536001023,362.7791536001023,0.01264720014296472,364.66321479994804,[-0.4241666666666667],[-0.2683333333333333],[1],[0],[0],[1.8915251998696476],['target'],767126,001,2024-10-11_11h21.12.526,visual search experiement,2024.2.1post4,59.722493503923104,2024-10-11 11h21.19.037181 +0530,
149,0,149,[0.21583333333333332],[0.1375],[1],[0],[0],[1.2362084998749197],['target'],149,0,149,0,364.68384880013764,,5,364.6746144001372,364.68384880013764,364.68384880013764,0.011278199963271618,365.9112029001117,[0.21583333333333332],[0.1375],[1],[0],[0],[1.2362084998749197],['target'],767126,001,2024-10-11_11h21.12.526,visual search experiement,2024.2.1post4,59.722493503923104,2024-10-11 11h21.19.037181 +0530,
150,0,150,[0.35],[0.0575],[1],[0],[0],[0.669199800118804],[None],150,0,150,0,365.94197460007854,,5,365.9226665000897,365.94197460007854,365.94197460007854,0.011316099902614951,366.592196600046,[0.35],[0.0575],[1],[0],[0],[0.669199800118804],[None],767126,001,2024-10-11_11h21.12.526,visual search experiement,2024.2.1post4,59.722493503923104,2024-10-11 11h21.19.037181 +0530,
151,0,151,[0.1675],[0.24916666666666668],[1],[0],[0],[2.1454402001108974],['target'],151,0,151,0,366.63290890003555,,10,366.6142989001237,366.63290890003555,366.63290890003555,0.02198239997960627,368.76018550014123,[0.1675],[0.24916666666666668],[1],[0],[0],[2.1454402001108974],['target'],767126,001,2024-10-11_11h21.12.526,visual search experiement,2024.2.1post4,59.722493503923104,2024-10-11 11h21.19.037181 +0530,
152,0,152,[-0.12],[0.37833333333333335],[1],[0],[0],[1.7467561000958085],['target'],152,0,152,0,368.79540319996886,,10,368.78229609993286,368.79540319996886,368.79540319996886,0.02195740002207458,370.52941239997745,[-0.12],[0.37833333333333335],[1],[0],[0],[1.7467561000958085],['target'],767126,001,2024-10-11_11h21.12.526,visual search experiement,2024.2.1post4,59.722493503923104,2024-10-11 11h21.19.037181 +0530,
153,0,153,[-0.1175],[0.1775],[1],[0],[0],[1.6589599999133497],['target'],153,0,153,0,370.5496954000555,,5,370.54096020013094,370.5496954000555,370.5496954000555,0.01138309994712472,372.20027630007826,[-0.1175],[0.1775],[1],[0],[0],[1.6589599999133497],['target'],767126,001,2024-10-11_11h21.12.526,visual search experiement,2024.2.1post4,59.722493503923104,2024-10-11 11h21.19.037181 +0530,
154,0,154,[0.32166666666666666],[0.34833333333333333],[1],[0],[0],[1.675509399967268],['target'],154,0,154,0,372.22042299993336,,5,372.21185820014216,372.22042299993336,372.22042299993336,0.011436499888077378,373.88793900003657,[0.32166666666666666],[0.34833333333333333],[1],[0],[0],[1.675509399967268],['target'],767126,001,2024-10-11_11h21.12.526,visual search experiement,2024.2.1post4,59.722493503923104,2024-10-11 11h21.19.037181 +0530,
155,0,155,[0.325],[-0.4575],[1],[0],[0],[2.1105462999548763],['target'],155,0,155,0,373.9279990999494,,10,373.9105354999192,373.9279990999494,373.9279990999494,0.02244350011460483,376.0214684000239,[0.325],[-0.4575],[1],[0],[0],[2.1105462999548763],['target'],767126,001,2024-10-11_11h21.12.526,visual search experiement,2024.2.1post4,59.722493503923104,2024-10-11 11h21.19.037181 +0530,
156,0,156,[-0.1775],[0.3983333333333333],[1],[0],[0],[2.729657799936831],['target'],156,0,156,0,376.0562565000728,,10,376.0442292999942,376.0562565000728,376.0562565000728,0.02258999994955957,378.77452690014616,[-0.1775],[0.3983333333333333],[1],[0],[0],[2.729657799936831],['target'],767126,001,2024-10-11_11h21.12.526,visual search experiement,2024.2.1post4,59.722493503923104,2024-10-11 11h21.19.037181 +0530,
157,0,157,[-0.0875],[-0.23916666666666667],[1],[0],[0],[1.7661445001140237],['target'],157,0,157,0,378.8140464001335,,10,378.79759229999036,378.8140464001335,378.8140464001335,0.02280479995533824,380.56410009996034,[-0.0875],[-0.23916666666666667],[1],[0],[0],[1.7661445001140237],['target'],767126,001,2024-10-11_11h21.12.526,visual search experiement,2024.2.1post4,59.722493503923104,2024-10-11 11h21.19.037181 +0530,
158,0,158,[-0.25916666666666666],[0.125],[1],[0],[0],[1.2917245000135154],['target'],158,0,158,0,380.5852526000235,,5,380.57703640009277,380.5852526000235,380.5852526000235,0.012756299925968051,381.8690808999818,[-0.25916666666666666],[0.125],[1],[0],[0],[1.2917245000135154],['target'],767126,001,2024-10-11_11h21.12.526,visual search experiement,2024.2.1post4,59.722493503923104,2024-10-11 11h21.19.037181 +0530,
159,0,159,[0.44666666666666666],[0.25083333333333335],[1],[0],[0],[2.0842576001305133],['target'],159,0,159,0,381.90978000010364,,10,381.89226810005493,381.90978000010364,381.90978000010364,0.023043900029733777,383.9768773999531,[0.44666666666666666],[0.25083333333333335],[1],[0],[0],[2.0842576001305133],['target'],767126,001,2024-10-11_11h21.12.526,visual search experiement,2024.2.1post4,59.722493503923104,2024-10-11 11h21.19.037181 +0530,
160,0,160,[0.19333333333333333],[-0.37916666666666665],[1],[0],[0],[1.4078854999970645],['target'],160,0,160,0,383.996648499975,,5,383.9891101999674,383.996648499975,383.996648499975,0.01201579999178648,385.39736080006696,[0.19333333333333333],[-0.37916666666666665],[1],[0],[0],[1.4078854999970645],['target'],767126,001,2024-10-11_11h21.12.526,visual search experiement,2024.2.1post4,59.722493503923104,2024-10-11 11h21.19.037181 +0530,
161,0,161,[0.2783333333333333],[-0.07916666666666666],[1],[0],[0],[2.564314000075683],['target'],161,0,161,0,385.4377405999694,,10,385.4228330999613,385.4377405999694,385.4377405999694,0.02532949997112155,387.98746480001137,[0.2783333333333333],[-0.07916666666666666],[1],[0],[0],[2.564314000075683],['target'],767126,001,2024-10-11_11h21.12.526,visual search experiement,2024.2.1post4,59.722493503923104,2024-10-11 11h21.19.037181 +0530,
162,0,162,[-0.025833333333333333],[-0.21416666666666667],[1],[0],[0],[1.4015746999066323],['target'],162,0,162,0,388.007286200067,,5,387.99954629992135,388.007286200067,388.007286200067,0.011905499966815114,389.40146660013124,[-0.025833333333333333],[-0.21416666666666667],[1],[0],[0],[1.4015746999066323],['target'],767126,001,2024-10-11_11h21.12.526,visual search experiement,2024.2.1post4,59.722493503923104,2024-10-11 11h21.19.037181 +0530,
163,0,163,[0.3375],[-0.0725],[1],[0],[0],[1.0355040000285953],['target'],163,0,163,0,389.4317596000619,,5,389.4134782999754,389.4317596000619,389.4317596000619,0.011881300015375018,390.44934080005623,[0.3375],[-0.0725],[1],[0],[0],[1.0355040000285953],['target'],767126,001,2024-10-11_11h21.12.526,visual search experiement,2024.2.1post4,59.722493503923104,2024-10-11 11h21.19.037181 +0530,
164,0,164,[-0.1925],[-0.2275],[1],[0],[0],[1.1590055001433939],['target'],164,0,164,0,390.4697110999841,,5,390.460921500111,390.4697110999841,390.4697110999841,0.011456700041890144,391.6202312000096,[-0.1925],[-0.2275],[1],[0],[0],[1.1590055001433939],['target'],767126,001,2024-10-11_11h21.12.526,visual search experiement,2024.2.1post4,59.722493503923104,2024-10-11 11h21.19.037181 +0530,
165,0,165,[0.2075],[-0.185],[1],[0],[0],[2.165006799856201],['target'],165,0,165,0,391.6606064001098,,10,391.6458332000766,391.6606064001098,391.6606064001098,0.025496099842712283,393.8111837001052,[0.2075],[-0.185],[1],[0],[0],[2.165006799856201],['target'],767126,001,2024-10-11_11h21.12.526,visual search experiement,2024.2.1post4,59.722493503923104,2024-10-11 11h21.19.037181 +0530,
166,0,166,[0.3308333333333333],[0.24833333333333332],[1],[0],[0],[1.7015082999132574],['target'],166,0,166,0,393.8310652000364,,5,393.82340490003116,393.8310652000364,393.8310652000364,0.012082400033250451,395.5252545000985,[0.3308333333333333],[0.24833333333333332],[1],[0],[0],[1.7015082999132574],['target'],767126,001,2024-10-11_11h21.12.526,visual search experiement,2024.2.1post4,59.722493503923104,2024-10-11 11h21.19.037181 +0530,
167,0,167,[-0.43166666666666664],[-0.23333333333333334],[1],[0],[0],[0.8014541000593454],[None],167,0,167,0,395.55551280011423,,5,395.53793460014276,395.55551280011423,395.55551280011423,0.012557199923321605,396.33972280006856,[-0.43166666666666664],[-0.23333333333333334],[1],[0],[0],[0.8014541000593454],[None],767126,001,2024-10-11_11h21.12.526,visual search experiement,2024.2.1post4,59.722493503923104,2024-10-11 11h21.19.037181 +0530,
168,0,168,[-0.43166666666666664],[-0.23333333333333334],[1],[0],[0],[1.7335212000180036],[None],168,0,168,0,396.38002149993554,,10,396.36357349995524,396.38002149993554,396.38002149993554,0.023719900054857135,398.09747890010476,[-0.43166666666666664],[-0.23333333333333334],[1],[0],[0],[1.7335212000180036],[None],767126,001,2024-10-11_11h21.12.526,visual search experiement,2024.2.1post4,59.722493503923104,2024-10-11 11h21.19.037181 +0530,
169,0,169,[-0.43166666666666664],[-0.23333333333333334],[1],[0],[0],[0.7641728001181036],[None],169,0,169,0,398.1374657000415,,10,398.124041199917,398.1374657000415,398.1374657000415,0.026378000155091286,398.8886246001348,[-0.43166666666666664],[-0.23333333333333334],[1],[0],[0],[0.7641728001181036],[None],767126,001,2024-10-11_11h21.12.526,visual search experiement,2024.2.1post4,59.722493503923104,2024-10-11 11h21.19.037181 +0530,
170,0,170,[-0.43166666666666664],[-0.23333333333333334],[0],[0],[1],[0.7609560999553651],[None],170,0,170,0,398.9123706999235,,5,398.9018451999873,398.9123706999235,398.9123706999235,0.01299820002168417,399.66313620004803,[-0.43166666666666664],[-0.23333333333333334],[0],[0],[1],[0.7609560999553651],[None],767126,001,2024-10-11_11h21.12.526,visual search experiement,2024.2.1post4,59.722493503923104,2024-10-11 11h21.19.037181 +0530,
171,0,171,[-0.43166666666666664],[-0.23333333333333334],[0],[0],[1],[0.3665789000224322],[None],171,0,171,0,399.7032437999733,,10,399.68891540006734,399.7032437999733,399.7032437999733,0.025630799820646644,400.0558267000597,[-0.43166666666666664],[-0.23333333333333334],[0],[0],[1],[0.3665789000224322],[None],767126,001,2024-10-11_11h21.12.526,visual search experiement,2024.2.1post4,59.722493503923104,2024-10-11 11h21.19.037181 +0530,
172,0,172,[-0.43166666666666664],[-0.23333333333333334],[0],[0],[1],[0.284300799947232],[None],172,0,172,0,400.09554060013033,,10,400.0787995001301,400.09554060013033,400.09554060013033,0.022814900148659945,400.36348680010997,[-0.43166666666666664],[-0.23333333333333334],[0],[0],[1],[0.284300799947232],[None],767126,001,2024-10-11_11h21.12.526,visual search experiement,2024.2.1post4,59.722493503923104,2024-10-11 11h21.19.037181 +0530,
173,0,173,[-0.43166666666666664],[-0.23333333333333334],[0],[0],[1],[0.29426870006136596],[None],173,0,173,0,400.3836741000414,,5,400.3752997999545,400.3836741000414,400.3836741000414,0.011629700195044279,400.66994170006365,[-0.43166666666666664],[-0.23333333333333334],[0],[0],[1],[0.29426870006136596],[None],767126,001,2024-10-11_11h21.12.526,visual search experiement,2024.2.1post4,59.722493503923104,2024-10-11 11h21.19.037181 +0530,
174,0,174,[-0.43166666666666664],[-0.23333333333333334],[0],[0],[1],[0.3002981999889016],[None],174,0,174,0,400.7083674999885,,10,400.6940222000703,400.7083674999885,400.7083674999885,0.02391309989616275,400.9948724000715,[-0.43166666666666664],[-0.23333333333333334],[0],[0],[1],[0.3002981999889016],[None],767126,001,2024-10-11_11h21.12.526,visual search experiement,2024.2.1post4,59.722493503923104,2024-10-11 11h21.19.037181 +0530,
175,0,175,[-0.43166666666666664],[-0.23333333333333334],[0],[0],[1],[0.2916115999687463],[None],175,0,175,0,401.034201500006,,5,401.0109630001243,401.034201500006,401.034201500006,0.01586050004698336,401.30293060000986,[-0.43166666666666664],[-0.23333333333333334],[0],[0],[1],[0.2916115999687463],[None],767126,001,2024-10-11_11h21.12.526,visual search experiement,2024.2.1post4,59.722493503923104,2024-10-11 11h21.19.037181 +0530,
176,0,176,[-0.43166666666666664],[-0.23333333333333334],[0],[0],[1],[0.32764820009469986],[None],176,0,176,0,401.3263179999776,,5,401.3173340000212,401.3263179999776,401.3263179999776,0.014290699968114495,401.64539580000564,[-0.43166666666666664],[-0.23333333333333334],[0],[0],[1],[0.32764820009469986],[None],767126,001,2024-10-11_11h21.12.526,visual search experiement,2024.2.1post4,59.722493503923104,2024-10-11 11h21.19.037181 +0530,
177,0,177,[-0.09666666666666666],[0.0825],[1],[0],[0],[1.6836513001471758],['target'],177,0,177,0,401.6838746999856,,10,401.66936470009387,401.6838746999856,401.6838746999856,0.023847299860790372,403.3533421000466,[-0.09666666666666666],[0.0825],[1],[0],[0],[1.6836513001471758],['target'],767126,001,2024-10-11_11h21.12.526,visual search experiement,2024.2.1post4,59.722493503923104,2024-10-11 11h21.19.037181 +0530,
178,0,178,[-0.37833333333333335],[0.005833333333333334],[1],[0],[0],[1.1356228000950068],['target'],178,0,178,0,403.38239239994437,,5,403.3652353999205,403.38239239994437,403.38239239994437,0.011729199904948473,404.50121399993077,[-0.37833333333333335],[0.005833333333333334],[1],[0],[0],[1.1356228000950068],['target'],767126,001,2024-10-11_11h21.12.526,visual search experiement,2024.2.1post4,59.722493503923104,2024-10-11 11h21.19.037181 +0530,
179,0,179,[-0.29833333333333334],[-0.2275],[1],[0],[0],[1.1600730000063777],['target'],179,0,179,0,404.5218893000856,,5,404.51341070001945,404.5218893000856,404.5218893000856,0.012075100094079971,405.67382050002925,[-0.29833333333333334],[-0.2275],[1],[0],[0],[1.1600730000063777],['target'],767126,001,2024-10-11_11h21.12.526,visual search experiement,2024.2.1post4,59.722493503923104,2024-10-11 11h21.19.037181 +0530,
180,0,180,[0.2875],[0.38666666666666666],[1],[0],[0],[1.7928780000656843],['target'],180,0,180,0,405.6941206001211,,5,405.68560700002126,405.6941206001211,405.6941206001211,0.011660699965432286,407.47883630008437,[0.2875],[0.38666666666666666],[1],[0],[0],[1.7928780000656843],['target'],767126,001,2024-10-11_11h21.12.526,visual search experiement,2024.2.1post4,59.722493503923104,2024-10-11 11h21.19.037181 +0530,
181,0,181,[-0.48833333333333334],[0.15583333333333332],[1],[0],[0],[1.68675859994255],['target'],181,0,181,0,407.49947799998336,,5,407.4901573001407,407.49947799998336,407.49947799998336,0.011198899941518903,409.17729160003364,[-0.48833333333333334],[0.15583333333333332],[1],[0],[0],[1.68675859994255],['target'],767126,001,2024-10-11_11h21.12.526,visual search experiement,2024.2.1post4,59.722493503923104,2024-10-11 11h21.19.037181 +0530,
182,0,182,[-0.48833333333333334],[0.15583333333333332],[0],[0],[1],[0.4824443000834435],[None],182,0,182,0,409.2157024999615,,10,409.2021254999563,409.2157024999615,409.2157024999615,0.024681800045073032,409.68493280000985,[-0.48833333333333334],[0.15583333333333332],[0],[0],[1],[0.4824443000834435],[None],767126,001,2024-10-11_11h21.12.526,visual search experiement,2024.2.1post4,59.722493503923104,2024-10-11 11h21.19.037181 +0530,
183,0,183,[-0.48833333333333334],[0.15583333333333332],[0],[0],[1],[0.2499520001001656],[None],183,0,183,0,409.71445740014315,,5,409.69991590012796,409.71445740014315,409.71445740014315,0.014815800124779344,409.9502149000764,[-0.48833333333333334],[0.15583333333333332],[0],[0],[1],[0.2499520001001656],[None],767126,001,2024-10-11_11h21.12.526,visual search experiement,2024.2.1post4,59.722493503923104,2024-10-11 11h21.19.037181 +0530,
184,0,184,[-0.48833333333333334],[0.15583333333333332],[0],[0],[1],[0.16551110008731484],[None],184,0,184,0,409.98947330005467,,10,409.97436750005,409.98947330005467,409.98947330005467,0.024032599991187453,410.14022019994445,[-0.48833333333333334],[0.15583333333333332],[0],[0],[1],[0.16551110008731484],[None],767126,001,2024-10-11_11h21.12.526,visual search experiement,2024.2.1post4,59.722493503923104,2024-10-11 11h21.19.037181 +0530,
185,0,185,[-0.48833333333333334],[0.15583333333333332],[0],[0],[1],[0.1355864000506699],[None],185,0,185,0,410.1808515000157,,10,410.1636932999827,410.1808515000157,410.1808515000157,0.023324700072407722,410.29969989997335,[-0.48833333333333334],[0.15583333333333332],[0],[0],[1],[0.1355864000506699],[None],767126,001,2024-10-11_11h21.12.526,visual search experiement,2024.2.1post4,59.722493503923104,2024-10-11 11h21.19.037181 +0530,
186,0,186,[-0.48833333333333334],[0.15583333333333332],[0],[0],[1],[0.16767170000821352],[None],186,0,186,0,410.3391126000788,,10,410.3234830000438,410.3391126000788,410.3391126000788,0.023628999944776297,410.4914462999441,[-0.48833333333333334],[0.15583333333333332],[0],[0],[1],[0.16767170000821352],[None],767126,001,2024-10-11_11h21.12.526,visual search experiement,2024.2.1post4,59.722493503923104,2024-10-11 11h21.19.037181 +0530,
187,0,187,[-0.48833333333333334],[0.15583333333333332],[0],[0],[1],[0.1769731999374926],[None],187,0,187,0,410.51305880001746,,5,410.5041743000038,410.51305880001746,410.51305880001746,0.012589199934154749,410.6814530000556,[-0.48833333333333334],[0.15583333333333332],[0],[0],[1],[0.1769731999374926],[None],767126,001,2024-10-11_11h21.12.526,visual search experiement,2024.2.1post4,59.722493503923104,2024-10-11 11h21.19.037181 +0530,
188,0,188,[-0.48833333333333334],[0.15583333333333332],[0],[0],[1],[0.1480929998215288],[None],188,0,188,0,410.7212414999958,,10,410.7081182000693,410.7212414999958,410.7212414999958,0.02654300001449883,410.85649579996243,[-0.48833333333333334],[0.15583333333333332],[0],[0],[1],[0.1480929998215288],[None],767126,001,2024-10-11_11h21.12.526,visual search experiement,2024.2.1post4,59.722493503923104,2024-10-11 11h21.19.037181 +0530,
189,0,189,[-0.48833333333333334],[0.15583333333333332],[0],[0],[1],[0.15080840000882745],[None],189,0,189,0,410.89632000005804,,10,410.8801543000154,410.89632000005804,410.89632000005804,0.02349829999729991,411.03132409998216,[-0.48833333333333334],[0.15583333333333332],[0],[0],[1],[0.15080840000882745],[None],767126,001,2024-10-11_11h21.12.526,visual search experiement,2024.2.1post4,59.722493503923104,2024-10-11 11h21.19.037181 +0530,
190,0,190,[-0.4675],[0.4866666666666667],[1],[0],[0],[3.2596644000150263],['target'],190,0,190,0,411.053593599936,,5,411.0441996001173,411.053593599936,411.053593599936,0.012706399895250797,414.30427439999767,[-0.4675],[0.4866666666666667],[1],[0],[0],[3.2596644000150263],['target'],767126,001,2024-10-11_11h21.12.526,visual search experiement,2024.2.1post4,59.722493503923104,2024-10-11 11h21.19.037181 +0530,
191,0,191,[-0.29333333333333333],[0.45416666666666666],[1],[0],[0],[2.6575885999482125],['target'],191,0,191,0,414.3436666999478,,10,414.3292247999925,414.3436666999478,414.3436666999478,0.024825099855661392,416.9871716001071,[-0.29333333333333333],[0.45416666666666666],[1],[0],[0],[2.6575885999482125],['target'],767126,001,2024-10-11_11h21.12.526,visual search experiement,2024.2.1post4,59.722493503923104,2024-10-11 11h21.19.037181 +0530,
192,0,192,[-0.04666666666666667],[0.17166666666666666],[1],[0],[0],[2.314585200045258],['target'],192,0,192,0,417.026409199927,,10,417.01410409994423,417.026409199927,417.026409199927,0.026789800031110644,419.3291140999645,[-0.04666666666666667],[0.17166666666666666],[1],[0],[0],[2.314585200045258],['target'],767126,001,2024-10-11_11h21.12.526,visual search experiement,2024.2.1post4,59.722493503923104,2024-10-11 11h21.19.037181 +0530,
193,0,193,[0.20416666666666666],[-0.17833333333333334],[1],[0],[0],[1.9794970999937505],['target'],193,0,193,0,419.3657627000939,,10,419.3531005999539,419.3657627000939,419.3657627000939,0.023836599895730615,421.3329374999739,[0.20416666666666666],[-0.17833333333333334],[1],[0],[0],[1.9794970999937505],['target'],767126,001,2024-10-11_11h21.12.526,visual search experiement,2024.2.1post4,59.722493503923104,2024-10-11 11h21.19.037181 +0530,
194,0,194,[-0.32083333333333336],[0.42916666666666664],[1],[0],[0],[2.150425599887967],['target'],194,0,194,0,421.3733769999817,,10,421.35628390009515,421.3733769999817,421.3733769999817,0.023199099814519286,423.5070474999957,[-0.32083333333333336],[0.42916666666666664],[1],[0],[0],[2.150425599887967],['target'],767126,001,2024-10-11_11h21.12.526,visual search experiement,2024.2.1post4,59.722493503923104,2024-10-11 11h21.19.037181 +0530,
195,0,195,[0.19333333333333333],[0.3591666666666667],[1],[0],[0],[1.4188995999284089],['target'],195,0,195,0,423.54865080001764,,10,423.52942660008557,423.54865080001764,423.54865080001764,0.022230899892747402,424.94869940006174,[0.19333333333333333],[0.3591666666666667],[1],[0],[0],[1.4188995999284089],['target'],767126,001,2024-10-11_11h21.12.526,visual search experiement,2024.2.1post4,59.722493503923104,2024-10-11 11h21.19.037181 +0530,
196,0,196,[-0.3541666666666667],[0.20583333333333334],[1],[0],[0],[1.642540100030601],['target'],196,0,196,0,424.97005490004085,,5,424.9618552001193,424.97005490004085,424.97005490004085,0.012982399901375175,426.60474320012145,[-0.3541666666666667],[0.20583333333333334],[1],[0],[0],[1.642540100030601],['target'],767126,001,2024-10-11_11h21.12.526,visual search experiement,2024.2.1post4,59.722493503923104,2024-10-11 11h21.19.037181 +0530,
197,0,197,[-0.24916666666666668],[0.24666666666666667],[1],[0],[0],[1.358543299837038],['target'],197,0,197,0,426.62457090010867,,5,426.61636410001665,426.62457090010867,426.62457090010867,0.011497100116685033,427.9752384000458,[-0.24916666666666668],[0.24666666666666667],[1],[0],[0],[1.358543299837038],['target'],767126,001,2024-10-11_11h21.12.526,visual search experiement,2024.2.1post4,59.722493503923104,2024-10-11 11h21.19.037181 +0530,
198,0,198,[-0.5075],[0.20166666666666666],[1],[0],[0],[1.2585169000085443],['target'],198,0,198,0,427.99507870012894,,5,427.98692489997484,427.99507870012894,427.99507870012894,0.011559300124645233,429.2457980001345,[-0.5075],[0.20166666666666666],[1],[0],[0],[1.2585169000085443],['target'],767126,001,2024-10-11_11h21.12.526,visual search experiement,2024.2.1post4,59.722493503923104,2024-10-11 11h21.19.037181 +0530,
199,0,199,[0.5116666666666667],[-0.0975],[1],[0],[0],[2.0181636000052094],['target'],199,0,199,0,429.2865722000133,,10,429.2682499999646,429.2865722000133,429.2865722000133,0.02226519980467856,431.28683630004525,[0.5116666666666667],[-0.0975],[1],[0],[0],[2.0181636000052094],['target'],767126,001,2024-10-11_11h21.12.526,visual search experiement,2024.2.1post4,59.722493503923104,2024-10-11 11h21.19.037181 +0530,
