thisN,thisTrialN,thisRepN,mouse.x,mouse.y,mouse.leftButton,mouse.midButton,mouse.rightButton,mouse.time,mouse.clicked_name,trials.thisRepN,trials.thisTrialN,trials.thisN,trials.thisIndex,thisRow.t,notes,num_distr,trial.started,fixation.started,target.started,mouse.started,trial.stopped,trials.mouse.x,trials.mouse.y,trials.mouse.leftButton,trials.mouse.midButton,trials.mouse.rightButton,trials.mouse.time,trials.mouse.clicked_name,participant,session,date,expName,psychopyVersion,frameRate,expStart,
0,0,0,[0.0625],[-0.37166666666666665],[1],[0],[0],[1.7150182998739183],['target'],0,0,0,0,0.0365323000587523,,5,0.022675700020045042,0.0365323000587523,0.0365323000587523,0.02240459993481636,1.7380445001181215,[0.0625],[-0.37166666666666665],[1],[0],[0],[1.7150182998739183],['target'],994610,001,2024-10-11_11h34.18.911,visual search experiement,2024.2.1post4,59.79849100039085,2024-10-11 11h34.25.059141 +0530,
1,0,1,[0.3933333333333333],[0.31416666666666665],[1],[0],[0],[1.9768477000761777],['target'],1,0,1,0,1.7779846999328583,,10,1.761091500055045,1.7779846999328583,1.7779846999328583,0.022870999993756413,3.738273600116372,[0.3933333333333333],[0.31416666666666665],[1],[0],[0],[1.9768477000761777],['target'],994610,001,2024-10-11_11h34.18.911,visual search experiement,2024.2.1post4,59.79849100039085,2024-10-11 11h34.25.059141 +0530,
2,0,2,[-0.31166666666666665],[0.3308333333333333],[1],[0],[0],[2.318358700023964],['target'],2,0,2,0,3.778033399954438,,10,3.7617103999946266,3.778033399954438,3.778033399954438,0.023238599998876452,6.080574200022966,[-0.31166666666666665],[0.3308333333333333],[1],[0],[0],[2.318358700023964],['target'],994610,001,2024-10-11_11h34.18.911,visual search experiement,2024.2.1post4,59.79849100039085,2024-10-11 11h34.25.059141 +0530,
3,0,3,[-0.034166666666666665],[-0.4625],[1],[0],[0],[1.7147709999699146],['target'],3,0,3,0,6.118824700126424,,10,6.105327700031921,6.118824700126424,6.118824700126424,0.02453850000165403,7.820482000010088,[-0.034166666666666665],[-0.4625],[1],[0],[0],[1.7147709999699146],['target'],994610,001,2024-10-11_11h34.18.911,visual search experiement,2024.2.1post4,59.79849100039085,2024-10-11 11h34.25.059141 +0530,
4,0,4,[-0.4425],[-0.2025],[1],[0],[0],[1.1536600000690669],['target'],4,0,4,0,7.850059200078249,,5,7.832191100111231,7.850059200078249,7.850059200078249,0.011545599903911352,8.986378000117838,[-0.4425],[-0.2025],[1],[0],[0],[1.1536600000690669],['target'],994610,001,2024-10-11_11h34.18.911,visual search experiement,2024.2.1post4,59.79849100039085,2024-10-11 11h34.25.059141 +0530,
5,0,5,[-0.20083333333333334],[0.11416666666666667],[1],[0],[0],[1.2176296999678016],['target'],5,0,5,0,9.024727799929678,,10,9.00962290004827,9.024727799929678,9.024727799929678,0.02305250009521842,10.227601800113916,[-0.20083333333333334],[0.11416666666666667],[1],[0],[0],[1.2176296999678016],['target'],994610,001,2024-10-11_11h34.18.911,visual search experiement,2024.2.1post4,59.79849100039085,2024-10-11 11h34.25.059141 +0530,
6,0,6,[-0.405],[0.4066666666666667],[1],[0],[0],[1.8626338001340628],['target'],6,0,6,0,10.26346020004712,,10,10.250413900008425,10.26346020004712,10.26346020004712,0.022656399989500642,12.11349739995785,[-0.405],[0.4066666666666667],[1],[0],[0],[1.8626338001340628],['target'],994610,001,2024-10-11_11h34.18.911,visual search experiement,2024.2.1post4,59.79849100039085,2024-10-11 11h34.25.059141 +0530,
7,0,7,[-0.12416666666666666],[0.07916666666666666],[1],[0],[0],[2.7171632000245154],['target'],7,0,7,0,12.153965899953619,,10,12.136516300030053,12.153965899953619,12.153965899953619,0.022833099821582437,14.854022599989548,[-0.12416666666666666],[0.07916666666666666],[1],[0],[0],[2.7171632000245154],['target'],994610,001,2024-10-11_11h34.18.911,visual search experiement,2024.2.1post4,59.79849100039085,2024-10-11 11h34.25.059141 +0530,
8,0,8,[-0.45416666666666666],[0.0825],[1],[0],[0],[1.4768095000181347],['target'],8,0,8,0,14.89417520002462,,10,14.87835230003111,14.89417520002462,14.89417520002462,0.024147700052708387,16.355525700142607,[-0.45416666666666666],[0.0825],[1],[0],[0],[1.4768095000181347],['target'],994610,001,2024-10-11_11h34.18.911,visual search experiement,2024.2.1post4,59.79849100039085,2024-10-11 11h34.25.059141 +0530,
9,0,9,[-0.1575],[0.34833333333333333],[1],[0],[0],[1.0468435999937356],['target'],9,0,9,0,16.391813999973238,,10,16.37874360010028,16.391813999973238,16.391813999973238,0.023030699929222465,17.42587639996782,[-0.1575],[0.34833333333333333],[1],[0],[0],[1.0468435999937356],['target'],994610,001,2024-10-11_11h34.18.911,visual search experiement,2024.2.1post4,59.79849100039085,2024-10-11 11h34.25.059141 +0530,
10,0,10,[0.24083333333333334],[-0.28833333333333333],[1],[0],[0],[1.751816299976781],['target'],10,0,10,0,17.466277400031686,,10,17.449060500133783,17.466277400031686,17.466277400031686,0.023033299949020147,19.201321200001985,[0.24083333333333334],[-0.28833333333333333],[1],[0],[0],[1.751816299976781],['target'],994610,001,2024-10-11_11h34.18.911,visual search experiement,2024.2.1post4,59.79849100039085,2024-10-11 11h34.25.059141 +0530,
11,0,11,[-0.13166666666666665],[0.39166666666666666],[1],[0],[0],[1.8761764001101255],['target'],11,0,11,0,19.221860599936917,,5,19.213452100055292,19.221860599936917,19.221860599936917,0.01197130000218749,21.090001299977303,[-0.13166666666666665],[0.39166666666666666],[1],[0],[0],[1.8761764001101255],['target'],994610,001,2024-10-11_11h34.18.911,visual search experiement,2024.2.1post4,59.79849100039085,2024-10-11 11h34.25.059141 +0530,
12,0,12,[0.20583333333333334],[-0.19],[1],[0],[0],[2.075318899936974],['target'],12,0,12,0,21.110976899974048,,5,21.10199180012569,21.110976899974048,21.110976899974048,0.011860399972647429,23.177776399999857,[0.20583333333333334],[-0.19],[1],[0],[0],[2.075318899936974],['target'],994610,001,2024-10-11_11h34.18.911,visual search experiement,2024.2.1post4,59.79849100039085,2024-10-11 11h34.25.059141 +0530,
13,0,13,[0.18083333333333335],[0.24666666666666667],[1],[0],[0],[1.2253392999991775],['target'],13,0,13,0,23.19852440012619,,5,23.189889600034803,23.19852440012619,23.19852440012619,0.01195090007968247,24.415576400002465,[0.18083333333333335],[0.24666666666666667],[1],[0],[0],[1.2253392999991775],['target'],994610,001,2024-10-11_11h34.18.911,visual search experiement,2024.2.1post4,59.79849100039085,2024-10-11 11h34.25.059141 +0530,
14,0,14,[0.30916666666666665],[0.17583333333333334],[1],[0],[0],[1.3251141000073403],['target'],14,0,14,0,24.435203100088984,,5,24.427541899960488,24.435203100088984,24.435203100088984,0.0118217000272125,25.752969600027427,[0.30916666666666665],[0.17583333333333334],[1],[0],[0],[1.3251141000073403],['target'],994610,001,2024-10-11_11h34.18.911,visual search experiement,2024.2.1post4,59.79849100039085,2024-10-11 11h34.25.059141 +0530,
15,0,15,[-0.35833333333333334],[0.16083333333333333],[1],[0],[0],[1.5194457999896258],['target'],15,0,15,0,25.793849000008777,,10,25.776497500017285,25.793849000008777,25.793849000008777,0.02338849985972047,27.29628930008039,[-0.35833333333333334],[0.16083333333333333],[1],[0],[0],[1.5194457999896258],['target'],994610,001,2024-10-11_11h34.18.911,visual search experiement,2024.2.1post4,59.79849100039085,2024-10-11 11h34.25.059141 +0530,
16,0,16,[-0.49333333333333335],[0.07],[1],[0],[0],[1.1795165999792516],['target'],16,0,16,0,27.33320270013064,,10,27.320178300142288,27.33320270013064,27.33320270013064,0.02367269992828369,28.50015279999934,[-0.49333333333333335],[0.07],[1],[0],[0],[1.1795165999792516],['target'],994610,001,2024-10-11_11h34.18.911,visual search experiement,2024.2.1post4,59.79849100039085,2024-10-11 11h34.25.059141 +0530,
17,0,17,[-0.475],[0.19833333333333333],[1],[0],[0],[1.2002151000779122],['target'],17,0,17,0,28.540517300134525,,10,28.523526000091806,28.540517300134525,28.540517300134525,0.023186600068584085,29.724059500033036,[-0.475],[0.19833333333333333],[1],[0],[0],[1.2002151000779122],['target'],994610,001,2024-10-11_11h34.18.911,visual search experiement,2024.2.1post4,59.79849100039085,2024-10-11 11h34.25.059141 +0530,
18,0,18,[-0.24833333333333332],[-0.024166666666666666],[1],[0],[0],[1.308347700163722],['target'],18,0,18,0,29.745094300014898,,5,29.73746810015291,29.745094300014898,29.745094300014898,0.013243700144812465,31.046196300070733,[-0.24833333333333332],[-0.024166666666666666],[1],[0],[0],[1.308347700163722],['target'],994610,001,2024-10-11_11h34.18.911,visual search experiement,2024.2.1post4,59.79849100039085,2024-10-11 11h34.25.059141 +0530,
19,0,19,[0.29],[-0.3625],[1],[0],[0],[1.9316911997739226],['target'],19,0,19,0,31.08634479995817,,10,31.071390700060874,31.08634479995817,31.08634479995817,0.025062199914827943,33.00344859994948,[0.29],[-0.3625],[1],[0],[0],[1.9316911997739226],['target'],994610,001,2024-10-11_11h34.18.911,visual search experiement,2024.2.1post4,59.79849100039085,2024-10-11 11h34.25.059141 +0530,
20,0,20,[-0.09916666666666667],[-0.40166666666666667],[1],[0],[0],[2.1645096000283957],['target'],20,0,20,0,33.04394020000473,,10,33.029585000127554,33.04394020000473,33.04394020000473,0.025952900061383843,35.19447010010481,[-0.09916666666666667],[-0.40166666666666667],[1],[0],[0],[2.1645096000283957],['target'],994610,001,2024-10-11_11h34.18.911,visual search experiement,2024.2.1post4,59.79849100039085,2024-10-11 11h34.25.059141 +0530,
21,0,21,[0.4891666666666667],[-0.3441666666666667],[0],[0],[1],[2.841783900046721],['target'],21,0,21,0,35.21659600012936,,5,35.20763870002702,35.21659600012936,35.21659600012936,0.012986099813133478,38.04970380011946,[0.4891666666666667],[-0.3441666666666667],[0],[0],[1],[2.841783900046721],['target'],994610,001,2024-10-11_11h34.18.911,visual search experiement,2024.2.1post4,59.79849100039085,2024-10-11 11h34.25.059141 +0530,
22,0,22,[-0.3516666666666667],[-0.24333333333333335],[1],[0],[0],[3.4107312001287937],['target'],22,0,22,0,38.091271799989045,,10,38.0730651000049,38.091271799989045,38.091271799989045,0.023234899854287505,41.484261699952185,[-0.3516666666666667],[-0.24333333333333335],[1],[0],[0],[3.4107312001287937],['target'],994610,001,2024-10-11_11h34.18.911,visual search experiement,2024.2.1post4,59.79849100039085,2024-10-11 11h34.25.059141 +0530,
23,0,23,[0.2175],[-0.31333333333333335],[1],[0],[0],[2.100659799994901],['target'],23,0,23,0,41.51473439997062,,5,41.496425500139594,41.51473439997062,41.51473439997062,0.012000099988654256,43.597436300013214,[0.2175],[-0.31333333333333335],[1],[0],[0],[2.100659799994901],['target'],994610,001,2024-10-11_11h34.18.911,visual search experiement,2024.2.1post4,59.79849100039085,2024-10-11 11h34.25.059141 +0530,
24,0,24,[0.3283333333333333],[-0.37333333333333335],[1],[0],[0],[2.000988099956885],['target'],24,0,24,0,43.63870260003023,,10,43.62081649992615,43.63870260003023,43.63870260003023,0.0232464000582695,45.622189400019124,[0.3283333333333333],[-0.37333333333333335],[1],[0],[0],[2.000988099956885],['target'],994610,001,2024-10-11_11h34.18.911,visual search experiement,2024.2.1post4,59.79849100039085,2024-10-11 11h34.25.059141 +0530,
25,0,25,[0.12833333333333333],[-0.375],[1],[0],[0],[1.0429609999991953],['target'],25,0,25,0,45.64393649995327,,5,45.63463670015335,45.64393649995327,45.64393649995327,0.01224690000526607,46.67796430015005,[0.12833333333333333],[-0.375],[1],[0],[0],[1.0429609999991953],['target'],994610,001,2024-10-11_11h34.18.911,visual search experiement,2024.2.1post4,59.79849100039085,2024-10-11 11h34.25.059141 +0530,
26,0,26,[0.17],[-0.25916666666666666],[1],[0],[0],[1.2591095000971109],['target'],26,0,26,0,46.69845140003599,,5,46.69005580013618,46.69845140003599,46.69845140003599,0.011958099901676178,47.94963810010813,[0.17],[-0.25916666666666666],[1],[0],[0],[1.2591095000971109],['target'],994610,001,2024-10-11_11h34.18.911,visual search experiement,2024.2.1post4,59.79849100039085,2024-10-11 11h34.25.059141 +0530,
27,0,27,[-0.0875],[-0.27416666666666667],[1],[0],[0],[0.9757684001233429],['target'],27,0,27,0,47.970849400153384,,5,47.96136529999785,47.970849400153384,47.970849400153384,0.011569600086659193,48.937560700112954,[-0.0875],[-0.27416666666666667],[1],[0],[0],[0.9757684001233429],['target'],994610,001,2024-10-11_11h34.18.911,visual search experiement,2024.2.1post4,59.79849100039085,2024-10-11 11h34.25.059141 +0530,
28,0,28,[0.20666666666666667],[0.1675],[1],[0],[0],[3.0086086001247168],['target'],28,0,28,0,48.95969399996102,,5,48.95096449996345,48.95969399996102,48.95969399996102,0.01324720005504787,51.95999200013466,[0.20666666666666667],[0.1675],[1],[0],[0],[3.0086086001247168],['target'],994610,001,2024-10-11_11h34.18.911,visual search experiement,2024.2.1post4,59.79849100039085,2024-10-11 11h34.25.059141 +0530,
29,0,29,[0.20666666666666667],[0.1675],[0],[0],[1],[0.4675833999644965],[None],29,0,29,0,51.99981459998526,,10,51.983301900094375,51.99981459998526,51.99981459998526,0.023089899914339185,52.45142970001325,[0.20666666666666667],[0.1675],[0],[0],[1],[0.4675833999644965],[None],994610,001,2024-10-11_11h34.18.911,visual search experiement,2024.2.1post4,59.79849100039085,2024-10-11 11h34.25.059141 +0530,
30,0,30,[0.20666666666666667],[0.1675],[0],[0],[1],[0.15026360005140305],[None],30,0,30,0,52.49125190009363,,10,52.47570209996775,52.49125190009363,52.49125190009363,0.024004300124943256,52.62628090009093,[0.20666666666666667],[0.1675],[0],[0],[1],[0.15026360005140305],[None],994610,001,2024-10-11_11h34.18.911,visual search experiement,2024.2.1post4,59.79849100039085,2024-10-11 11h34.25.059141 +0530,
31,0,31,[0.20666666666666667],[0.1675],[0],[0],[1],[0.30028690001927316],[None],31,0,31,0,52.66706870007329,,10,52.650177099974826,52.66706870007329,52.66706870007329,0.023737199837341905,52.95077960006893,[0.20666666666666667],[0.1675],[0],[0],[1],[0.30028690001927316],[None],994610,001,2024-10-11_11h34.18.911,visual search experiement,2024.2.1post4,59.79849100039085,2024-10-11 11h34.25.059141 +0530,
32,0,32,[0.20666666666666667],[0.1675],[0],[0],[1],[0.13461320009082556],[None],32,0,32,0,52.99113680003211,,10,52.974353099940345,52.99113680003211,52.99113680003211,0.02342069987207651,53.109328400110826,[0.20666666666666667],[0.1675],[0],[0],[1],[0.13461320009082556],[None],994610,001,2024-10-11_11h34.18.911,visual search experiement,2024.2.1post4,59.79849100039085,2024-10-11 11h34.25.059141 +0530,
33,0,33,[0.4216666666666667],[-0.4033333333333333],[1],[0],[0],[3.5162404000293463],['target'],33,0,33,0,53.14982830011286,,10,53.133058100007474,53.14982830011286,53.14982830011286,0.023561200127005577,56.6496727000922,[0.4216666666666667],[-0.4033333333333333],[1],[0],[0],[3.5162404000293463],['target'],994610,001,2024-10-11_11h34.18.911,visual search experiement,2024.2.1post4,59.79849100039085,2024-10-11 11h34.25.059141 +0530,
34,0,34,[0.11916666666666667],[0.245],[1],[0],[0],[1.2422283999621868],['target'],34,0,34,0,56.67106840014458,,5,56.66218059998937,56.67106840014458,56.67106840014458,0.012334000086411834,57.904745700070634,[0.11916666666666667],[0.245],[1],[0],[0],[1.2422283999621868],['target'],994610,001,2024-10-11_11h34.18.911,visual search experiement,2024.2.1post4,59.79849100039085,2024-10-11 11h34.25.059141 +0530,
35,0,35,[0.3025],[-0.4141666666666667],[1],[0],[0],[1.658699099905789],['target'],35,0,35,0,57.92785690003075,,5,57.91907389997505,57.92785690003075,57.92785690003075,0.014144400134682655,59.57812130008824,[0.3025],[-0.4141666666666667],[1],[0],[0],[1.658699099905789],['target'],994610,001,2024-10-11_11h34.18.911,visual search experiement,2024.2.1post4,59.79849100039085,2024-10-11 11h34.25.059141 +0530,
36,0,36,[0.21],[0.0475],[1],[0],[0],[2.8599461000412703],['target'],36,0,36,0,59.6188145999331,,10,59.60201030015014,59.6188145999331,59.6188145999331,0.023712499998509884,62.46227160003036,[0.21],[0.0475],[1],[0],[0],[2.8599461000412703],['target'],994610,001,2024-10-11_11h34.18.911,visual search experiement,2024.2.1post4,59.79849100039085,2024-10-11 11h34.25.059141 +0530,
37,0,37,[0.07583333333333334],[-0.04583333333333333],[1],[0],[0],[1.5802849000319839],['target'],37,0,37,0,62.499308299971744,,10,62.48597689997405,62.499308299971744,62.499308299971744,0.0235513998195529,64.06660749996081,[0.07583333333333334],[-0.04583333333333333],[1],[0],[0],[1.5802849000319839],['target'],994610,001,2024-10-11_11h34.18.911,visual search experiement,2024.2.1post4,59.79849100039085,2024-10-11 11h34.25.059141 +0530,
38,0,38,[0.30083333333333334],[0.08916666666666667],[1],[0],[0],[1.2588484000880271],['target'],38,0,38,0,64.08677399996668,,5,64.07862780010328,64.08677399996668,64.08677399996668,0.011799100087955594,65.3378600999713,[0.30083333333333334],[0.08916666666666667],[1],[0],[0],[1.2588484000880271],['target'],994610,001,2024-10-11_11h34.18.911,visual search experiement,2024.2.1post4,59.79849100039085,2024-10-11 11h34.25.059141 +0530,
39,0,39,[0.056666666666666664],[-0.36],[1],[0],[0],[2.317497899988666],['target'],39,0,39,0,65.37852260004729,,10,65.36039189994335,65.37852260004729,65.37852260004729,0.022373999934643507,67.67823119997047,[0.056666666666666664],[-0.36],[1],[0],[0],[2.317497899988666],['target'],994610,001,2024-10-11_11h34.18.911,visual search experiement,2024.2.1post4,59.79849100039085,2024-10-11 11h34.25.059141 +0530,
40,0,40,[0.2758333333333333],[-0.0025],[1],[0],[0],[1.7078873999416828],['target'],40,0,40,0,67.6982152001001,,5,67.690532800043,67.6982152001001,67.6982152001001,0.012144700158387423,69.39876649994403,[0.2758333333333333],[-0.0025],[1],[0],[0],[1.7078873999416828],['target'],994610,001,2024-10-11_11h34.18.911,visual search experiement,2024.2.1post4,59.79849100039085,2024-10-11 11h34.25.059141 +0530,
41,0,41,[0.3258333333333333],[0.08333333333333333],[1],[0],[0],[1.1812630000058562],['target'],41,0,41,0,69.4391886999365,,10,69.4250861001201,69.4391886999365,69.4391886999365,0.026168799959123135,70.60674459999427,[0.3258333333333333],[0.08333333333333333],[1],[0],[0],[1.1812630000058562],['target'],994610,001,2024-10-11_11h34.18.911,visual search experiement,2024.2.1post4,59.79849100039085,2024-10-11 11h34.25.059141 +0530,
42,0,42,[-0.065],[-0.135],[1],[0],[0],[1.1512865000404418],['target'],42,0,42,0,70.64764280011877,,10,70.63014800008386,70.64764280011877,70.64764280011877,0.023221399867907166,71.78178340010345,[-0.065],[-0.135],[1],[0],[0],[1.1512865000404418],['target'],994610,001,2024-10-11_11h34.18.911,visual search experiement,2024.2.1post4,59.79849100039085,2024-10-11 11h34.25.059141 +0530,
43,0,43,[-0.135],[-0.42916666666666664],[1],[0],[0],[1.514644900104031],['target'],43,0,43,0,71.82333709998056,,10,71.80947730015032,71.82333709998056,71.82333709998056,0.027503699995577335,73.32448650011793,[-0.135],[-0.42916666666666664],[1],[0],[0],[1.514644900104031],['target'],994610,001,2024-10-11_11h34.18.911,visual search experiement,2024.2.1post4,59.79849100039085,2024-10-11 11h34.25.059141 +0530,
44,0,44,[-0.0225],[0.3825],[1],[0],[0],[6.406673299847171],['target'],44,0,44,0,73.34494909993373,,5,73.33682430000044,73.34494909993373,73.34494909993373,0.012163999956101179,79.74390000011772,[-0.0225],[0.3825],[1],[0],[0],[6.406673299847171],['target'],994610,001,2024-10-11_11h34.18.911,visual search experiement,2024.2.1post4,59.79849100039085,2024-10-11 11h34.25.059141 +0530,
45,0,45,[0.10833333333333334],[0.014166666666666666],[1],[0],[0],[1.1086530000902712],['target'],45,0,45,0,79.76358640007675,,5,79.75624429993331,79.76358640007675,79.76358640007675,0.012175800045952201,80.8652983000502,[0.10833333333333334],[0.014166666666666666],[1],[0],[0],[1.1086530000902712],['target'],994610,001,2024-10-11_11h34.18.911,visual search experiement,2024.2.1post4,59.79849100039085,2024-10-11 11h34.25.059141 +0530,
46,0,46,[0.17416666666666666],[-0.005833333333333334],[1],[0],[0],[1.0502472000662237],['target'],46,0,46,0,80.90602739993483,,10,80.88953620009124,80.90602739993483,80.90602739993483,0.024109499994665384,81.94027450005524,[0.17416666666666666],[-0.005833333333333334],[1],[0],[0],[1.0502472000662237],['target'],994610,001,2024-10-11_11h34.18.911,visual search experiement,2024.2.1post4,59.79849100039085,2024-10-11 11h34.25.059141 +0530,
47,0,47,[0.19333333333333333],[-0.2783333333333333],[1],[0],[0],[2.666897099930793],['target'],47,0,47,0,81.97969139995985,,10,81.96295650000684,81.97969139995985,81.97969139995985,0.02247880003415048,84.63017280003987,[0.19333333333333333],[-0.2783333333333333],[1],[0],[0],[2.666897099930793],['target'],994610,001,2024-10-11_11h34.18.911,visual search experiement,2024.2.1post4,59.79849100039085,2024-10-11 11h34.25.059141 +0530,
48,0,48,[-0.2608333333333333],[-0.06833333333333333],[1],[0],[0],[2.232459499966353],['target'],48,0,48,0,84.67019680002704,,10,84.65415400010534,84.67019680002704,84.67019680002704,0.023817199980840087,86.88692610012367,[-0.2608333333333333],[-0.06833333333333333],[1],[0],[0],[2.232459499966353],['target'],994610,001,2024-10-11_11h34.18.911,visual search experiement,2024.2.1post4,59.79849100039085,2024-10-11 11h34.25.059141 +0530,
49,0,49,[0.4866666666666667],[-0.2841666666666667],[1],[0],[0],[1.5083333000075072],['target'],49,0,49,0,86.90665569994599,,5,86.89902180014178,86.90665569994599,86.90665569994599,0.011938299983739853,88.40771239995956,[0.4866666666666667],[-0.2841666666666667],[1],[0],[0],[1.5083333000075072],['target'],994610,001,2024-10-11_11h34.18.911,visual search experiement,2024.2.1post4,59.79849100039085,2024-10-11 11h34.25.059141 +0530,
50,0,50,[0.47583333333333333],[-0.0525],[1],[0],[0],[1.8241437000688165],['target'],50,0,50,0,88.44755210005678,,10,88.43430009996518,88.44755210005678,88.44755210005678,0.026436200132593513,90.2588808001019,[0.47583333333333333],[-0.0525],[1],[0],[0],[1.8241437000688165],['target'],994610,001,2024-10-11_11h34.18.911,visual search experiement,2024.2.1post4,59.79849100039085,2024-10-11 11h34.25.059141 +0530,
51,0,51,[-0.2225],[-0.145],[1],[0],[0],[1.2996747000142932],['target'],51,0,51,0,90.28872169996612,,5,90.27313040010631,90.28872169996612,90.28872169996612,0.014038600027561188,91.57315169996582,[-0.2225],[-0.145],[1],[0],[0],[1.2996747000142932],['target'],994610,001,2024-10-11_11h34.18.911,visual search experiement,2024.2.1post4,59.79849100039085,2024-10-11 11h34.25.059141 +0530,
52,0,52,[-0.2125],[0.45416666666666666],[1],[0],[0],[1.7751070000231266],['target'],52,0,52,0,91.5935539000202,,5,91.58475910010748,91.5935539000202,91.5935539000202,0.0114676000084728,93.36023560003377,[-0.2125],[0.45416666666666666],[1],[0],[0],[1.7751070000231266],['target'],994610,001,2024-10-11_11h34.18.911,visual search experiement,2024.2.1post4,59.79849100039085,2024-10-11 11h34.25.059141 +0530,
53,0,53,[0.23083333333333333],[0.24],[1],[0],[0],[1.4916405999101698],['target'],53,0,53,0,93.380473600002,,5,93.37194360001013,93.380473600002,93.380473600002,0.011547999922186136,94.8639603999909,[0.23083333333333333],[0.24],[1],[0],[0],[1.4916405999101698],['target'],994610,001,2024-10-11_11h34.18.911,visual search experiement,2024.2.1post4,59.79849100039085,2024-10-11 11h34.25.059141 +0530,
54,0,54,[0.43],[0.018333333333333333],[1],[0],[0],[1.1919049001298845],['target'],54,0,54,0,94.88454869994894,,5,94.8761410000734,94.88454869994894,94.88454869994894,0.012026600074023008,96.068388100015,[0.43],[0.018333333333333333],[1],[0],[0],[1.1919049001298845],['target'],994610,001,2024-10-11_11h34.18.911,visual search experiement,2024.2.1post4,59.79849100039085,2024-10-11 11h34.25.059141 +0530,
55,0,55,[0.44583333333333336],[-0.015833333333333335],[1],[0],[0],[0.7671632999554276],['target'],55,0,55,0,96.10962860006839,,10,96.09222370013595,96.10962860006839,96.10962860006839,0.023675600066781044,96.85974110011011,[0.44583333333333336],[-0.015833333333333335],[1],[0],[0],[0.7671632999554276],['target'],994610,001,2024-10-11_11h34.18.911,visual search experiement,2024.2.1post4,59.79849100039085,2024-10-11 11h34.25.059141 +0530,
56,0,56,[-0.12833333333333333],[-0.405],[1],[0],[0],[1.8613581000827253],['target'],56,0,56,0,96.88252110010944,,5,96.87228620005772,96.88252110010944,96.88252110010944,0.012366399867460132,98.7340713001322,[-0.12833333333333333],[-0.405],[1],[0],[0],[1.8613581000827253],['target'],994610,001,2024-10-11_11h34.18.911,visual search experiement,2024.2.1post4,59.79849100039085,2024-10-11 11h34.25.059141 +0530,
57,0,57,[0.36],[-0.455],[1],[0],[0],[1.2930598999373615],['target'],57,0,57,0,98.75545380008407,,5,98.7458097001072,98.75545380008407,98.75545380008407,0.011575099779292941,100.03919490007684,[0.36],[-0.455],[1],[0],[0],[1.2930598999373615],['target'],994610,001,2024-10-11_11h34.18.911,visual search experiement,2024.2.1post4,59.79849100039085,2024-10-11 11h34.25.059141 +0530,
58,0,58,[0.010833333333333334],[-0.25166666666666665],[1],[0],[0],[1.3999356001149863],['target'],58,0,58,0,100.07933340012096,,10,100.06308130011894,100.07933340012096,100.07933340012096,0.02375790011137724,101.46336399996653,[0.010833333333333334],[-0.25166666666666665],[1],[0],[0],[1.3999356001149863],['target'],994610,001,2024-10-11_11h34.18.911,visual search experiement,2024.2.1post4,59.79849100039085,2024-10-11 11h34.25.059141 +0530,
59,0,59,[0.08083333333333333],[0.26166666666666666],[1],[0],[0],[1.6575535000301898],['target'],59,0,59,0,101.48306949995458,,5,101.47517300001346,101.48306949995458,101.48306949995458,0.011653400026261806,103.13304580003023,[0.08083333333333333],[0.26166666666666666],[1],[0],[0],[1.6575535000301898],['target'],994610,001,2024-10-11_11h34.18.911,visual search experiement,2024.2.1post4,59.79849100039085,2024-10-11 11h34.25.059141 +0530,
60,0,60,[0.32416666666666666],[0.12083333333333333],[1],[0],[0],[1.242084899917245],['target'],60,0,60,0,103.15289300004952,,5,103.14515689993277,103.15289300004952,103.15289300004952,0.01199789997190237,104.38759379996918,[0.32416666666666666],[0.12083333333333333],[1],[0],[0],[1.242084899917245],['target'],994610,001,2024-10-11_11h34.18.911,visual search experiement,2024.2.1post4,59.79849100039085,2024-10-11 11h34.25.059141 +0530,
61,0,61,[-0.16166666666666665],[-0.2808333333333333],[1],[0],[0],[1.268520100042224],['target'],61,0,61,0,104.40756740001962,,5,104.39923950005323,104.40756740001962,104.40756740001962,0.011512500001117587,105.66813140013255,[-0.16166666666666665],[-0.2808333333333333],[1],[0],[0],[1.268520100042224],['target'],994610,001,2024-10-11_11h34.18.911,visual search experiement,2024.2.1post4,59.79849100039085,2024-10-11 11h34.25.059141 +0530,
62,0,62,[-0.3491666666666667],[-0.04],[1],[0],[0],[1.3791795999277383],['target'],62,0,62,0,105.70346580003388,,10,105.69131150003523,105.70346580003388,105.70346580003388,0.0230557001195848,107.07092510000803,[-0.3491666666666667],[-0.04],[1],[0],[0],[1.3791795999277383],['target'],994610,001,2024-10-11_11h34.18.911,visual search experiement,2024.2.1post4,59.79849100039085,2024-10-11 11h34.25.059141 +0530,
63,0,63,[0.09416666666666666],[-0.006666666666666667],[1],[0],[0],[1.5183523998130113],['target'],63,0,63,0,107.09104600013234,,5,107.08300530002452,107.09104600013234,107.09104600013234,0.011919100070372224,108.60173260001466,[0.09416666666666666],[-0.006666666666666667],[1],[0],[0],[1.5183523998130113],['target'],994610,001,2024-10-11_11h34.18.911,visual search experiement,2024.2.1post4,59.79849100039085,2024-10-11 11h34.25.059141 +0530,
64,0,64,[0.08166666666666667],[0.07583333333333334],[1],[0],[0],[1.29579639993608],['target'],64,0,64,0,108.6372181000188,,10,108.62471619993448,108.6372181000188,108.6372181000188,0.022850299952551723,109.92086019995622,[0.08166666666666667],[0.07583333333333334],[1],[0],[0],[1.29579639993608],['target'],994610,001,2024-10-11_11h34.18.911,visual search experiement,2024.2.1post4,59.79849100039085,2024-10-11 11h34.25.059141 +0530,
65,0,65,[0.295],[0.16666666666666666],[1],[0],[0],[1.2915811000857502],['target'],65,0,65,0,109.94138410012238,,5,109.93307709996589,109.94138410012238,109.94138410012238,0.012065500020980835,111.22504990012385,[0.295],[0.16666666666666666],[1],[0],[0],[1.2915811000857502],['target'],994610,001,2024-10-11_11h34.18.911,visual search experiement,2024.2.1post4,59.79849100039085,2024-10-11 11h34.25.059141 +0530,
66,0,66,[-0.020833333333333332],[-0.0725],[1],[0],[0],[3.4662795001640916],['target'],66,0,66,0,111.26607379992492,,10,111.24932279996574,111.26607379992492,111.26607379992492,0.02412960003130138,114.71606769994833,[-0.020833333333333332],[-0.0725],[1],[0],[0],[3.4662795001640916],['target'],994610,001,2024-10-11_11h34.18.911,visual search experiement,2024.2.1post4,59.79849100039085,2024-10-11 11h34.25.059141 +0530,
67,0,67,[-0.0425],[0.4625],[1],[0],[0],[2.7604759999085218],['target'],67,0,67,0,114.75648320000619,,10,114.73912520008162,114.75648320000619,114.75648320000619,0.022902099881321192,117.50005080015399,[-0.0425],[0.4625],[1],[0],[0],[2.7604759999085218],['target'],994610,001,2024-10-11_11h34.18.911,visual search experiement,2024.2.1post4,59.79849100039085,2024-10-11 11h34.25.059141 +0530,
68,0,68,[-0.32166666666666666],[-0.225],[1],[0],[0],[1.1347976999823004],['target'],68,0,68,0,117.53005610010587,,5,117.51248109992594,117.53005610010587,117.53005610010587,0.012246400117874146,118.647636000067,[-0.32166666666666666],[-0.225],[1],[0],[0],[1.1347976999823004],['target'],994610,001,2024-10-11_11h34.18.911,visual search experiement,2024.2.1post4,59.79849100039085,2024-10-11 11h34.25.059141 +0530,
69,0,69,[0.31833333333333336],[0.008333333333333333],[1],[0],[0],[1.8778826999478042],['target'],69,0,69,0,118.68805609992705,,10,118.67023560008965,118.68805609992705,118.68805609992705,0.022469199961051345,120.5485698999837,[0.31833333333333336],[0.008333333333333333],[1],[0],[0],[1.8778826999478042],['target'],994610,001,2024-10-11_11h34.18.911,visual search experiement,2024.2.1post4,59.79849100039085,2024-10-11 11h34.25.059141 +0530,
70,0,70,[0.34],[-0.30416666666666664],[1],[0],[0],[1.2295027000363916],['target'],70,0,70,0,120.58450040011667,,10,120.57133379997686,120.58450040011667,120.58450040011667,0.02260360005311668,121.80117210000753,[0.34],[-0.30416666666666664],[1],[0],[0],[1.2295027000363916],['target'],994610,001,2024-10-11_11h34.18.911,visual search experiement,2024.2.1post4,59.79849100039085,2024-10-11 11h34.25.059141 +0530,
71,0,71,[-0.2125],[0.2783333333333333],[1],[0],[0],[1.8679645999800414],['target'],71,0,71,0,121.84243479999714,,10,121.82438859995455,121.84243479999714,121.84243479999714,0.023063299944624305,123.69272559997626,[-0.2125],[0.2783333333333333],[1],[0],[0],[1.8679645999800414],['target'],994610,001,2024-10-11_11h34.18.911,visual search experiement,2024.2.1post4,59.79849100039085,2024-10-11 11h34.25.059141 +0530,
72,0,72,[0.18166666666666667],[-0.11583333333333333],[1],[0],[0],[1.4272559999953955],['target'],72,0,72,0,123.71319369995035,,5,123.70422290009446,123.71319369995035,123.71319369995035,0.011318700155243278,125.13187890010886,[0.18166666666666667],[-0.11583333333333333],[1],[0],[0],[1.4272559999953955],['target'],994610,001,2024-10-11_11h34.18.911,visual search experiement,2024.2.1post4,59.79849100039085,2024-10-11 11h34.25.059141 +0530,
73,0,73,[0.3516666666666667],[-0.04],[1],[0],[0],[1.1506221999879926],['target'],73,0,73,0,125.17161129997112,,10,125.15425759996288,125.17161129997112,125.17161129997112,0.022251500049605966,126.30533659993671,[0.3516666666666667],[-0.04],[1],[0],[0],[1.1506221999879926],['target'],994610,001,2024-10-11_11h34.18.911,visual search experiement,2024.2.1post4,59.79849100039085,2024-10-11 11h34.25.059141 +0530,
74,0,74,[0.26416666666666666],[-0.2175],[1],[0],[0],[1.0187737999949604],['target'],74,0,74,0,126.34574669995345,,10,126.32805659994483,126.34574669995345,126.34574669995345,0.022570299915969372,127.34730769996531,[0.26416666666666666],[-0.2175],[1],[0],[0],[1.0187737999949604],['target'],994610,001,2024-10-11_11h34.18.911,visual search experiement,2024.2.1post4,59.79849100039085,2024-10-11 11h34.25.059141 +0530,
75,0,75,[-0.085],[-0.30416666666666664],[1],[0],[0],[1.0351831999141723],['target'],75,0,75,0,127.36708860006183,,5,127.35903890011832,127.36708860006183,127.36708860006183,0.011537600075826049,128.39456590008922,[-0.085],[-0.30416666666666664],[1],[0],[0],[1.0351831999141723],['target'],994610,001,2024-10-11_11h34.18.911,visual search experiement,2024.2.1post4,59.79849100039085,2024-10-11 11h34.25.059141 +0530,
76,0,76,[0.0875],[-0.36833333333333335],[1],[0],[0],[1.5130962999537587],['target'],76,0,76,0,128.4313308999408,,10,128.41743619996123,128.4313308999408,128.4313308999408,0.022731600096449256,129.93087689997628,[0.0875],[-0.36833333333333335],[1],[0],[0],[1.5130962999537587],['target'],994610,001,2024-10-11_11h34.18.911,visual search experiement,2024.2.1post4,59.79849100039085,2024-10-11 11h34.25.059141 +0530,
77,0,77,[-0.09916666666666667],[0.23166666666666666],[1],[0],[0],[1.2415716999676079],['target'],77,0,77,0,129.9508146001026,,5,129.94285120000131,129.9508146001026,129.9508146001026,0.011817899998277426,131.18491830001585,[-0.09916666666666667],[0.23166666666666666],[1],[0],[0],[1.2415716999676079],['target'],994610,001,2024-10-11_11h34.18.911,visual search experiement,2024.2.1post4,59.79849100039085,2024-10-11 11h34.25.059141 +0530,
78,0,78,[0.28833333333333333],[0.14583333333333334],[1],[0],[0],[1.0593956999946386],['target'],78,0,78,0,131.20576000004075,,5,131.19673690013587,131.20576000004075,131.20576000004075,0.011587099870666862,132.2564445999451,[0.28833333333333333],[0.14583333333333334],[1],[0],[0],[1.0593956999946386],['target'],994610,001,2024-10-11_11h34.18.911,visual search experiement,2024.2.1post4,59.79849100039085,2024-10-11 11h34.25.059141 +0530,
79,0,79,[-0.5033333333333333],[0.31583333333333335],[1],[0],[0],[1.9985308998730034],['target'],79,0,79,0,132.2968244999647,,10,132.28161710011773,132.2968244999647,132.2968244999647,0.025025200098752975,134.28046589996666,[-0.5033333333333333],[0.31583333333333335],[1],[0],[0],[1.9985308998730034],['target'],994610,001,2024-10-11_11h34.18.911,visual search experiement,2024.2.1post4,59.79849100039085,2024-10-11 11h34.25.059141 +0530,
80,0,80,[-0.43],[0.2325],[1],[0],[0],[0.9192241998389363],['target'],80,0,80,0,134.30114110000432,,5,134.29215390002355,134.30114110000432,134.30114110000432,0.011529600014910102,135.2117153001018,[-0.43],[0.2325],[1],[0],[0],[0.9192241998389363],['target'],994610,001,2024-10-11_11h34.18.911,visual search experiement,2024.2.1post4,59.79849100039085,2024-10-11 11h34.25.059141 +0530,
81,0,81,[0.41833333333333333],[0.10083333333333333],[1],[0],[0],[1.8852073999587446],['target'],81,0,81,0,135.24207359994762,,5,135.22579420008697,135.24207359994762,135.24207359994762,0.013957299990579486,137.11144370003603,[0.41833333333333333],[0.10083333333333333],[1],[0],[0],[1.8852073999587446],['target'],994610,001,2024-10-11_11h34.18.911,visual search experiement,2024.2.1post4,59.79849100039085,2024-10-11 11h34.25.059141 +0530,
82,0,82,[-0.2966666666666667],[-0.45166666666666666],[1],[0],[0],[1.5629257999826223],['target'],82,0,82,0,137.14760709996335,,10,137.13465739996172,137.14760709996335,137.14760709996335,0.023087400011718273,138.69792079995386,[-0.2966666666666667],[-0.45166666666666666],[1],[0],[0],[1.5629257999826223],['target'],994610,001,2024-10-11_11h34.18.911,visual search experiement,2024.2.1post4,59.79849100039085,2024-10-11 11h34.25.059141 +0530,
83,0,83,[-0.4841666666666667],[-0.46],[1],[0],[0],[1.0590456000063568],['target'],83,0,83,0,138.71791380015202,,5,138.70974800013937,138.71791380015202,138.71791380015202,0.011672299820929766,139.76916679996066,[-0.4841666666666667],[-0.46],[1],[0],[0],[1.0590456000063568],['target'],994610,001,2024-10-11_11h34.18.911,visual search experiement,2024.2.1post4,59.79849100039085,2024-10-11 11h34.25.059141 +0530,
84,0,84,[0.18333333333333332],[0.2833333333333333],[1],[0],[0],[1.6751607998739928],['target'],84,0,84,0,139.7886473000981,,5,139.7808183999732,139.7886473000981,139.7886473000981,0.01152250007726252,141.4564603001345,[0.18333333333333332],[0.2833333333333333],[1],[0],[0],[1.6751607998739928],['target'],994610,001,2024-10-11_11h34.18.911,visual search experiement,2024.2.1post4,59.79849100039085,2024-10-11 11h34.25.059141 +0530,
85,0,85,[0.48833333333333334],[-0.26416666666666666],[1],[0],[0],[1.5003403001464903],['target'],85,0,85,0,141.49652980011888,,10,141.47975219995715,141.49652980011888,141.49652980011888,0.023168999934569,142.9803917000536,[0.48833333333333334],[-0.26416666666666666],[1],[0],[0],[1.5003403001464903],['target'],994610,001,2024-10-11_11h34.18.911,visual search experiement,2024.2.1post4,59.79849100039085,2024-10-11 11h34.25.059141 +0530,
86,0,86,[0.215],[0.24416666666666667],[1],[0],[0],[1.2584802999626845],['target'],86,0,86,0,143.00084049999714,,5,142.99190269992687,143.00084049999714,143.00084049999714,0.011360399890691042,144.25075850007124,[0.215],[0.24416666666666667],[1],[0],[0],[1.2584802999626845],['target'],994610,001,2024-10-11_11h34.18.911,visual search experiement,2024.2.1post4,59.79849100039085,2024-10-11 11h34.25.059141 +0530,
87,0,87,[-0.48],[0.03916666666666667],[1],[0],[0],[1.7205327001865953],['target'],87,0,87,0,144.29234659997746,,10,144.27347730007023,144.29234659997746,144.29234659997746,0.022563300095498562,145.9944122999441,[-0.48],[0.03916666666666667],[1],[0],[0],[1.7205327001865953],['target'],994610,001,2024-10-11_11h34.18.911,visual search experiement,2024.2.1post4,59.79849100039085,2024-10-11 11h34.25.059141 +0530,
88,0,88,[-0.4141666666666667],[-0.04833333333333333],[1],[0],[0],[1.2679588000755757],['target'],88,0,88,0,146.0255821000319,,5,146.00613930006512,146.0255821000319,146.0255821000319,0.011575399897992611,147.27439179993235,[-0.4141666666666667],[-0.04833333333333333],[1],[0],[0],[1.2679588000755757],['target'],994610,001,2024-10-11_11h34.18.911,visual search experiement,2024.2.1post4,59.79849100039085,2024-10-11 11h34.25.059141 +0530,
89,0,89,[0.38333333333333336],[-0.20833333333333334],[1],[0],[0],[1.4817755001131445],['target'],89,0,89,0,147.31477349996567,,10,147.29989799996838,147.31477349996567,147.31477349996567,0.0253757000900805,148.78198890015483,[0.38333333333333336],[-0.20833333333333334],[1],[0],[0],[1.4817755001131445],['target'],994610,001,2024-10-11_11h34.18.911,visual search experiement,2024.2.1post4,59.79849100039085,2024-10-11 11h34.25.059141 +0530,
90,0,90,[-0.26916666666666667],[0.475],[1],[0],[0],[2.908012199914083],['target'],90,0,90,0,148.80242900014855,,5,148.79382780008018,148.80242900014855,148.80242900014855,0.011679799994453788,151.70217610010877,[-0.26916666666666667],[0.475],[1],[0],[0],[2.908012199914083],['target'],994610,001,2024-10-11_11h34.18.911,visual search experiement,2024.2.1post4,59.79849100039085,2024-10-11 11h34.25.059141 +0530,
91,0,91,[0.09333333333333334],[-0.4375],[1],[0],[0],[1.650920100044459],['target'],91,0,91,0,151.74369399994612,,10,151.72504670009948,151.74369399994612,151.74369399994612,0.022747900104150176,153.376329400111,[0.09333333333333334],[-0.4375],[1],[0],[0],[1.650920100044459],['target'],994610,001,2024-10-11_11h34.18.911,visual search experiement,2024.2.1post4,59.79849100039085,2024-10-11 11h34.25.059141 +0530,
92,0,92,[-0.27],[-0.0675],[1],[0],[0],[1.4346668000798672],[None],92,0,92,0,153.4173538000323,,10,153.3988930999767,153.4173538000323,153.4173538000323,0.022341399919241667,154.8338641000446,[-0.27],[-0.0675],[1],[0],[0],[1.4346668000798672],[None],994610,001,2024-10-11_11h34.18.911,visual search experiement,2024.2.1post4,59.79849100039085,2024-10-11 11h34.25.059141 +0530,
93,0,93,[-0.27],[-0.0675],[1],[0],[0],[0.6258131000213325],[None],93,0,93,0,154.85380879999138,,5,154.84571190015413,154.85380879999138,154.85380879999138,0.01167210005223751,155.4718321999535,[-0.27],[-0.0675],[1],[0],[0],[0.6258131000213325],[None],994610,001,2024-10-11_11h34.18.911,visual search experiement,2024.2.1post4,59.79849100039085,2024-10-11 11h34.25.059141 +0530,
94,0,94,[-0.27],[-0.0675],[1],[0],[0],[0.2751069001387805],[None],94,0,94,0,155.49179959995672,,5,155.48375390004367,155.49179959995672,155.49179959995672,0.011777600040659308,155.7592689001467,[-0.27],[-0.0675],[1],[0],[0],[0.2751069001387805],[None],994610,001,2024-10-11_11h34.18.911,visual search experiement,2024.2.1post4,59.79849100039085,2024-10-11 11h34.25.059141 +0530,
95,0,95,[-0.27],[-0.0675],[1],[0],[0],[0.22609930019825697],[None],95,0,95,0,155.78009329992346,,5,155.77174530015327,155.78009329992346,155.78009329992346,0.012336799874901772,155.99814640008844,[-0.27],[-0.0675],[1],[0],[0],[0.22609930019825697],[None],994610,001,2024-10-11_11h34.18.911,visual search experiement,2024.2.1post4,59.79849100039085,2024-10-11 11h34.25.059141 +0530,
96,0,96,[-0.27],[-0.0675],[1],[0],[0],[0.2758367001079023],[None],96,0,96,0,156.01850920007564,,5,156.01022780011408,156.01850920007564,156.01850920007564,0.011955199996009469,156.286514100153,[-0.27],[-0.0675],[1],[0],[0],[0.2758367001079023],[None],994610,001,2024-10-11_11h34.18.911,visual search experiement,2024.2.1post4,59.79849100039085,2024-10-11 11h34.25.059141 +0530,
97,0,97,[0.25083333333333335],[0.2525],[1],[0],[0],[1.4006647998467088],['target'],97,0,97,0,156.32700040005147,,10,156.30988920014352,156.32700040005147,156.32700040005147,0.0232504999730736,157.71090020006523,[0.25083333333333335],[0.2525],[1],[0],[0],[1.4006647998467088],['target'],994610,001,2024-10-11_11h34.18.911,visual search experiement,2024.2.1post4,59.79849100039085,2024-10-11 11h34.25.059141 +0530,
98,0,98,[0.17833333333333334],[0.3408333333333333],[1],[0],[0],[1.7660029001999646],['target'],98,0,98,0,157.751095399959,,10,157.73528570006602,157.751095399959,157.751095399959,0.02420299989171326,159.50161490007304,[0.17833333333333334],[0.3408333333333333],[1],[0],[0],[1.7660029001999646],['target'],994610,001,2024-10-11_11h34.18.911,visual search experiement,2024.2.1post4,59.79849100039085,2024-10-11 11h34.25.059141 +0530,
99,0,99,[-0.28583333333333333],[-0.21],[1],[0],[0],[1.6667341999709606],['target'],99,0,99,0,159.5418769000098,,10,159.5264696001541,159.5418769000098,159.5418769000098,0.024703799979761243,161.1935012000613,[-0.28583333333333333],[-0.21],[1],[0],[0],[1.6667341999709606],['target'],994610,001,2024-10-11_11h34.18.911,visual search experiement,2024.2.1post4,59.79849100039085,2024-10-11 11h34.25.059141 +0530,
100,0,100,[-0.02],[-0.1025],[1],[0],[0],[0.9851907000411302],['target'],100,0,100,0,161.21369539992884,,5,161.20542729995213,161.21369539992884,161.21369539992884,0.011768999975174665,162.19092670013197,[-0.02],[-0.1025],[1],[0],[0],[0.9851907000411302],['target'],994610,001,2024-10-11_11h34.18.911,visual search experiement,2024.2.1post4,59.79849100039085,2024-10-11 11h34.25.059141 +0530,
101,0,101,[-0.36],[-0.4741666666666667],[1],[0],[0],[1.6361531000584364],['target'],101,0,101,0,162.22187829995528,,5,162.20247970009223,162.22187829995528,162.22187829995528,0.011419899994507432,163.83896089997143,[-0.36],[-0.4741666666666667],[1],[0],[0],[1.6361531000584364],['target'],994610,001,2024-10-11_11h34.18.911,visual search experiement,2024.2.1post4,59.79849100039085,2024-10-11 11h34.25.059141 +0530,
102,0,102,[0.205],[0.019166666666666665],[1],[0],[0],[1.2176900000777096],['target'],102,0,102,0,163.87889600009657,,10,163.86178110004403,163.87889600009657,163.87889600009657,0.02268909988924861,165.07979550003074,[0.205],[0.019166666666666665],[1],[0],[0],[1.2176900000777096],['target'],994610,001,2024-10-11_11h34.18.911,visual search experiement,2024.2.1post4,59.79849100039085,2024-10-11 11h34.25.059141 +0530,
103,0,103,[-0.24916666666666668],[0.24333333333333335],[1],[0],[0],[2.1356062998529524],['target'],103,0,103,0,165.12079730001278,,10,165.1022539001424,165.12079730001278,165.12079730001278,0.022306700004264712,167.23830140009522,[-0.24916666666666668],[0.24333333333333335],[1],[0],[0],[2.1356062998529524],['target'],994610,001,2024-10-11_11h34.18.911,visual search experiement,2024.2.1post4,59.79849100039085,2024-10-11 11h34.25.059141 +0530,
104,0,104,[0.5283333333333333],[0.16666666666666666],[1],[0],[0],[1.3753496001008898],[None],104,0,104,0,167.25860049994662,,5,167.25033680000342,167.25860049994662,167.25860049994662,0.011807600036263466,168.62602109997533,[0.5283333333333333],[0.16666666666666666],[1],[0],[0],[1.3753496001008898],[None],994610,001,2024-10-11_11h34.18.911,visual search experiement,2024.2.1post4,59.79849100039085,2024-10-11 11h34.25.059141 +0530,
105,0,105,[0.16666666666666666],[-0.2841666666666667],[1],[0],[0],[2.0431196000427008],['target'],105,0,105,0,168.6670798000414,,10,168.64893750008196,168.6670798000414,168.6670798000414,0.022792000090703368,170.69257590011694,[0.16666666666666666],[-0.2841666666666667],[1],[0],[0],[2.0431196000427008],['target'],994610,001,2024-10-11_11h34.18.911,visual search experiement,2024.2.1post4,59.79849100039085,2024-10-11 11h34.25.059141 +0530,
106,0,106,[-0.48583333333333334],[-0.060833333333333336],[1],[0],[0],[1.4854675000533462],['target'],106,0,106,0,170.73232179996558,,10,170.71588229993358,170.73232179996558,170.73232179996558,0.023151200031861663,172.20180759998038,[-0.48583333333333334],[-0.060833333333333336],[1],[0],[0],[1.4854675000533462],['target'],994610,001,2024-10-11_11h34.18.911,visual search experiement,2024.2.1post4,59.79849100039085,2024-10-11 11h34.25.059141 +0530,
107,0,107,[0.32416666666666666],[-0.44083333333333335],[1],[0],[0],[2.1349349000956863],['target'],107,0,107,0,172.23214279999956,,5,172.21363330003805,172.23214279999956,172.23214279999956,0.011599599849432707,174.3490172000602,[0.32416666666666666],[-0.44083333333333335],[1],[0],[0],[2.1349349000956863],['target'],994610,001,2024-10-11_11h34.18.911,visual search experiement,2024.2.1post4,59.79849100039085,2024-10-11 11h34.25.059141 +0530,
108,0,108,[-0.0775],[0.35333333333333333],[1],[0],[0],[2.0937159000895917],['target'],108,0,108,0,174.38860730011947,,10,174.37223330000415,174.38860730011947,174.38860730011947,0.02307590004056692,176.46629120013677,[-0.0775],[0.35333333333333333],[1],[0],[0],[2.0937159000895917],['target'],994610,001,2024-10-11_11h34.18.911,visual search experiement,2024.2.1post4,59.79849100039085,2024-10-11 11h34.25.059141 +0530,
109,0,109,[-0.3725],[-0.09833333333333333],[1],[0],[0],[1.5793530000373721],['target'],109,0,109,0,176.50155870011076,,10,176.48921880009584,176.50155870011076,176.50155870011076,0.022757899947464466,178.06889540003613,[-0.3725],[-0.09833333333333333],[1],[0],[0],[1.5793530000373721],['target'],994610,001,2024-10-11_11h34.18.911,visual search experiement,2024.2.1post4,59.79849100039085,2024-10-11 11h34.25.059141 +0530,
110,0,110,[-0.3275],[0.43333333333333335],[1],[0],[0],[1.5347452000714839],['target'],110,0,110,0,178.1100022001192,,10,178.09167110011913,178.1100022001192,178.1100022001192,0.02261819993145764,179.6268591999542,[-0.3275],[0.43333333333333335],[1],[0],[0],[1.5347452000714839],['target'],994610,001,2024-10-11_11h34.18.911,visual search experiement,2024.2.1post4,59.79849100039085,2024-10-11 11h34.25.059141 +0530,
111,0,111,[-0.16666666666666666],[0.48583333333333334],[1],[0],[0],[1.968905400019139],['target'],111,0,111,0,179.64735290012322,,5,179.63848090008833,179.64735290012322,179.64735290012322,0.011460800189524889,181.60784150008112,[-0.16666666666666666],[0.48583333333333334],[1],[0],[0],[1.968905400019139],['target'],994610,001,2024-10-11_11h34.18.911,visual search experiement,2024.2.1post4,59.79849100039085,2024-10-11 11h34.25.059141 +0530,
112,0,112,[-0.31916666666666665],[0.4816666666666667],[1],[0],[0],[2.824088499881327],['target'],112,0,112,0,181.6444319000002,,10,181.63113040011376,181.6444319000002,181.6444319000002,0.023117800010368228,184.45566300000064,[-0.31916666666666665],[0.4816666666666667],[1],[0],[0],[2.824088499881327],['target'],994610,001,2024-10-11_11h34.18.911,visual search experiement,2024.2.1post4,59.79849100039085,2024-10-11 11h34.25.059141 +0530,
113,0,113,[0.285],[0.4583333333333333],[1],[0],[0],[2.448548800079152],['target'],113,0,113,0,184.4842868000269,,5,184.46835710015148,184.4842868000269,184.4842868000269,0.012429800117388368,186.917274300009,[0.285],[0.4583333333333333],[1],[0],[0],[2.448548800079152],['target'],994610,001,2024-10-11_11h34.18.911,visual search experiement,2024.2.1post4,59.79849100039085,2024-10-11 11h34.25.059141 +0530,
114,0,114,[0.30333333333333334],[-0.05333333333333334],[0],[0],[1],[0.8514441000297666],[None],114,0,114,0,186.9577371000778,,10,186.9403349000495,186.9577371000778,186.9577371000778,0.022926799952983856,187.7921082000248,[0.30333333333333334],[-0.05333333333333334],[0],[0],[1],[0.8514441000297666],[None],994610,001,2024-10-11_11h34.18.911,visual search experiement,2024.2.1post4,59.79849100039085,2024-10-11 11h34.25.059141 +0530,
115,0,115,[0.30333333333333334],[-0.05333333333333334],[0],[0],[1],[0.40185289992950857],[None],115,0,115,0,187.83314110012725,,10,187.81485199998133,187.83314110012725,187.83314110012725,0.022602899931371212,188.217033599969,[0.30333333333333334],[-0.05333333333333334],[0],[0],[1],[0.40185289992950857],[None],994610,001,2024-10-11_11h34.18.911,visual search experiement,2024.2.1post4,59.79849100039085,2024-10-11 11h34.25.059141 +0530,
116,0,116,[0.30333333333333334],[-0.05333333333333334],[0],[0],[1],[0.1596794999204576],[None],116,0,116,0,188.23804470011964,,5,188.22923039994203,188.23804470011964,188.23804470011964,0.012056899955496192,188.38933659996837,[0.30333333333333334],[-0.05333333333333334],[0],[0],[1],[0.1596794999204576],[None],994610,001,2024-10-11_11h34.18.911,visual search experiement,2024.2.1post4,59.79849100039085,2024-10-11 11h34.25.059141 +0530,
117,0,117,[0.30333333333333334],[-0.05333333333333334],[0],[0],[1],[0.11018509999848902],[None],117,0,117,0,188.41135190008208,,5,188.40194130013697,188.41135190008208,188.41135190008208,0.01247090008109808,188.51242840010673,[0.30333333333333334],[-0.05333333333333334],[0],[0],[1],[0.11018509999848902],[None],994610,001,2024-10-11_11h34.18.911,visual search experiement,2024.2.1post4,59.79849100039085,2024-10-11 11h34.25.059141 +0530,
118,0,118,[0.30333333333333334],[-0.05333333333333334],[0],[0],[1],[0.14228340005502105],[None],118,0,118,0,188.5321118000429,,5,188.52426100010052,188.5321118000429,188.5321118000429,0.011707199970260262,188.6668780001346,[0.30333333333333334],[-0.05333333333333334],[0],[0],[1],[0.14228340005502105],[None],994610,001,2024-10-11_11h34.18.911,visual search experiement,2024.2.1post4,59.79849100039085,2024-10-11 11h34.25.059141 +0530,
119,0,119,[0.30333333333333334],[-0.05333333333333334],[0],[0],[1],[0.1184213999658823],[None],119,0,119,0,188.70743439998478,,10,188.69089700002223,188.70743439998478,188.70743439998478,0.023895599879324436,188.80967009998858,[0.30333333333333334],[-0.05333333333333334],[0],[0],[1],[0.1184213999658823],[None],994610,001,2024-10-11_11h34.18.911,visual search experiement,2024.2.1post4,59.79849100039085,2024-10-11 11h34.25.059141 +0530,
120,0,120,[0.30333333333333334],[-0.05333333333333334],[0],[0],[1],[0.10027300007641315],[None],120,0,120,0,188.84923940012231,,10,188.83287400007248,188.84923940012231,188.84923940012231,0.023052899865433574,188.93346780003048,[0.30333333333333334],[-0.05333333333333334],[0],[0],[1],[0.10027300007641315],[None],994610,001,2024-10-11_11h34.18.911,visual search experiement,2024.2.1post4,59.79849100039085,2024-10-11 11h34.25.059141 +0530,
121,0,121,[0.30333333333333334],[-0.05333333333333334],[0],[0],[1],[0.14310170011594892],[None],121,0,121,0,188.95383949996904,,5,188.94540870003402,188.95383949996904,188.95383949996904,0.011791199911385775,189.08882970013656,[0.30333333333333334],[-0.05333333333333334],[0],[0],[1],[0.14310170011594892],[None],994610,001,2024-10-11_11h34.18.911,visual search experiement,2024.2.1post4,59.79849100039085,2024-10-11 11h34.25.059141 +0530,
122,0,122,[0.30333333333333334],[-0.05333333333333334],[0],[0],[1],[0.14254960021935403],[None],122,0,122,0,189.10888910014182,,5,189.1008337000385,189.10888910014182,189.10888910014182,0.0118648000061512,189.2437074999325,[0.30333333333333334],[-0.05333333333333334],[0],[0],[1],[0.14254960021935403],[None],994610,001,2024-10-11_11h34.18.911,visual search experiement,2024.2.1post4,59.79849100039085,2024-10-11 11h34.25.059141 +0530,
123,0,123,[0.07666666666666666],[0.21833333333333332],[1],[0],[0],[1.5447792999912053],['target'],123,0,123,0,189.28434300003573,,10,189.26689000008628,189.28434300003573,189.28434300003573,0.02304490003734827,190.81216900004074,[0.07666666666666666],[0.21833333333333332],[1],[0],[0],[1.5447792999912053],['target'],994610,001,2024-10-11_11h34.18.911,visual search experiement,2024.2.1post4,59.79849100039085,2024-10-11 11h34.25.059141 +0530,
124,0,124,[-0.42],[-0.06666666666666667],[1],[0],[0],[1.1682325000874698],['target'],124,0,124,0,190.84165840013884,,5,190.82384259998798,190.84165840013884,190.84165840013884,0.011474800063297153,191.99241850012913,[-0.42],[-0.06666666666666667],[1],[0],[0],[1.1682325000874698],['target'],994610,001,2024-10-11_11h34.18.911,visual search experiement,2024.2.1post4,59.79849100039085,2024-10-11 11h34.25.059141 +0530,
125,0,125,[-0.45666666666666667],[-0.043333333333333335],[1],[0],[0],[0.8084728000685573],['target'],125,0,125,0,192.01332839997485,,5,192.00463650003076,192.01332839997485,192.01332839997485,0.012090499978512526,192.81344910012558,[-0.45666666666666667],[-0.043333333333333335],[1],[0],[0],[0.8084728000685573],['target'],994610,001,2024-10-11_11h34.18.911,visual search experiement,2024.2.1post4,59.79849100039085,2024-10-11 11h34.25.059141 +0530,
126,0,126,[0.36583333333333334],[-0.23833333333333334],[1],[0],[0],[1.567847799975425],['target'],126,0,126,0,192.85435639997013,,10,192.83701080013998,192.85435639997013,192.85435639997013,0.023434200091287494,194.405197000131,[0.36583333333333334],[-0.23833333333333334],[1],[0],[0],[1.567847799975425],['target'],994610,001,2024-10-11_11h34.18.911,visual search experiement,2024.2.1post4,59.79849100039085,2024-10-11 11h34.25.059141 +0530,
127,0,127,[0.44],[0.4716666666666667],[1],[0],[0],[1.8347710000816733],['target'],127,0,127,0,194.4249655001331,,5,194.41717110015452,194.4249655001331,194.4249655001331,0.011822300031781197,196.25229219999164,[0.44],[0.4716666666666667],[1],[0],[0],[1.8347710000816733],['target'],994610,001,2024-10-11_11h34.18.911,visual search experiement,2024.2.1post4,59.79849100039085,2024-10-11 11h34.25.059141 +0530,
128,0,128,[-0.15333333333333332],[0.12833333333333333],[1],[0],[0],[1.1138550001196563],['target'],128,0,128,0,196.28840530011803,,10,196.2752684999723,196.28840530011803,196.28840530011803,0.022848899941891432,197.38960810005665,[-0.15333333333333332],[0.12833333333333333],[1],[0],[0],[1.1138550001196563],['target'],994610,001,2024-10-11_11h34.18.911,visual search experiement,2024.2.1post4,59.79849100039085,2024-10-11 11h34.25.059141 +0530,
129,0,129,[0.4083333333333333],[0.38666666666666666],[1],[0],[0],[3.2822427002247423],['target'],129,0,129,0,197.42951630009338,,10,197.41280049993657,197.42951630009338,197.42951630009338,0.02303729997947812,200.69544479995966,[0.4083333333333333],[0.38666666666666666],[1],[0],[0],[3.2822427002247423],['target'],994610,001,2024-10-11_11h34.18.911,visual search experiement,2024.2.1post4,59.79849100039085,2024-10-11 11h34.25.059141 +0530,
130,0,130,[-0.3908333333333333],[0.2916666666666667],[1],[0],[0],[1.3414946000557393],['target'],130,0,130,0,200.71548609994352,,5,200.70745250000618,200.71548609994352,200.71548609994352,0.011806899914517999,202.04933049995452,[-0.3908333333333333],[0.2916666666666667],[1],[0],[0],[1.3414946000557393],['target'],994610,001,2024-10-11_11h34.18.911,visual search experiement,2024.2.1post4,59.79849100039085,2024-10-11 11h34.25.059141 +0530,
131,0,131,[0.29083333333333333],[0.29333333333333333],[1],[0],[0],[1.3173249999526888],['target'],131,0,131,0,202.09046200010926,,10,202.07325430004857,202.09046200010926,202.09046200010926,0.02379460004158318,203.39100920013152,[0.29083333333333333],[0.29333333333333333],[1],[0],[0],[1.3173249999526888],['target'],994610,001,2024-10-11_11h34.18.911,visual search experiement,2024.2.1post4,59.79849100039085,2024-10-11 11h34.25.059141 +0530,
132,0,132,[0.4008333333333333],[0.11083333333333334],[1],[0],[0],[1.466436899965629],['target'],132,0,132,0,203.4311729001347,,10,203.4147960001137,203.4311729001347,203.4311729001347,0.02362550003454089,204.88160800002515,[0.4008333333333333],[0.11083333333333334],[1],[0],[0],[1.466436899965629],['target'],994610,001,2024-10-11_11h34.18.911,visual search experiement,2024.2.1post4,59.79849100039085,2024-10-11 11h34.25.059141 +0530,
133,0,133,[-0.17166666666666666],[-0.3875],[1],[0],[0],[1.9346278000157326],['target'],133,0,133,0,204.9224207000807,,10,204.904334400082,204.9224207000807,204.9224207000807,0.02255470003001392,206.83931299997494,[-0.17166666666666666],[-0.3875],[1],[0],[0],[1.9346278000157326],['target'],994610,001,2024-10-11_11h34.18.911,visual search experiement,2024.2.1post4,59.79849100039085,2024-10-11 11h34.25.059141 +0530,
134,0,134,[-0.0008333333333333334],[-0.17916666666666667],[1],[0],[0],[1.242283800151199],['target'],134,0,134,0,206.85926440008916,,5,206.85091329994611,206.85926440008916,206.85926440008916,0.01142500014975667,208.09355939994566,[-0.0008333333333333334],[-0.17916666666666667],[1],[0],[0],[1.242283800151199],['target'],994610,001,2024-10-11_11h34.18.911,visual search experiement,2024.2.1post4,59.79849100039085,2024-10-11 11h34.25.059141 +0530,
135,0,135,[0.465],[-0.23833333333333334],[1],[0],[0],[1.3913945001550019],['target'],135,0,135,0,208.1139154001139,,5,208.1052830000408,208.1139154001139,208.1139154001139,0.011538899969309568,209.49699300015345,[0.465],[-0.23833333333333334],[1],[0],[0],[1.3913945001550019],['target'],994610,001,2024-10-11_11h34.18.911,visual search experiement,2024.2.1post4,59.79849100039085,2024-10-11 11h34.25.059141 +0530,
136,0,136,[-0.16583333333333333],[-0.44666666666666666],[1],[0],[0],[1.7842266000807285],['target'],136,0,136,0,209.53781220014207,,10,209.520365400007,209.53781220014207,209.53781220014207,0.02322900015860796,211.30494050006382,[-0.16583333333333333],[-0.44666666666666666],[1],[0],[0],[1.7842266000807285],['target'],994610,001,2024-10-11_11h34.18.911,visual search experiement,2024.2.1post4,59.79849100039085,2024-10-11 11h34.25.059141 +0530,
137,0,137,[0.4483333333333333],[-0.06333333333333334],[1],[0],[0],[1.568268399918452],['target'],137,0,137,0,211.346122500021,,10,211.32760850014165,211.346122500021,211.346122500021,0.02251600008457899,212.89633010001853,[0.4483333333333333],[-0.06333333333333334],[1],[0],[0],[1.568268399918452],['target'],994610,001,2024-10-11_11h34.18.911,visual search experiement,2024.2.1post4,59.79849100039085,2024-10-11 11h34.25.059141 +0530,
138,0,138,[-0.07166666666666667],[-0.06666666666666667],[1],[0],[0],[1.21898079989478],['target'],138,0,138,0,212.9369586999528,,10,212.9189210999757,212.9369586999528,212.9369586999528,0.02243590005673468,214.13835870008916,[-0.07166666666666667],[-0.06666666666666667],[1],[0],[0],[1.21898079989478],['target'],994610,001,2024-10-11_11h34.18.911,visual search experiement,2024.2.1post4,59.79849100039085,2024-10-11 11h34.25.059141 +0530,
139,0,139,[-0.385],[-0.215],[1],[0],[0],[1.267125500133261],['target'],139,0,139,0,214.1778178999666,,10,214.16083159996197,214.1778178999666,214.1778178999666,0.022314799949526787,215.4283088000957,[-0.385],[-0.215],[1],[0],[0],[1.267125500133261],['target'],994610,001,2024-10-11_11h34.18.911,visual search experiement,2024.2.1post4,59.79849100039085,2024-10-11 11h34.25.059141 +0530,
140,0,140,[-0.1475],[0.2633333333333333],[1],[0],[0],[2.0783236999996006],['target'],140,0,140,0,215.46922069997527,,10,215.45076270005666,215.46922069997527,215.46922069997527,0.0222658000420779,217.52956920000724,[-0.1475],[0.2633333333333333],[1],[0],[0],[2.0783236999996006],['target'],994610,001,2024-10-11_11h34.18.911,visual search experiement,2024.2.1post4,59.79849100039085,2024-10-11 11h34.25.059141 +0530,
141,0,141,[0.19666666666666666],[0.16416666666666666],[1],[0],[0],[1.2023471998982131],['target'],141,0,141,0,217.56019959994592,,5,217.54178220010363,217.56019959994592,217.56019959994592,0.012017499888315797,218.7445185999386,[0.19666666666666666],[0.16416666666666666],[1],[0],[0],[1.2023471998982131],['target'],994610,001,2024-10-11_11h34.18.911,visual search experiement,2024.2.1post4,59.79849100039085,2024-10-11 11h34.25.059141 +0530,
142,0,142,[0.26916666666666667],[0.17916666666666667],[1],[0],[0],[0.925158099969849],['target'],142,0,142,0,218.76410200004466,,5,218.75603649998084,218.76410200004466,218.76410200004466,0.011393999913707376,219.6815373999998,[0.26916666666666667],[0.17916666666666667],[1],[0],[0],[0.925158099969849],['target'],994610,001,2024-10-11_11h34.18.911,visual search experiement,2024.2.1post4,59.79849100039085,2024-10-11 11h34.25.059141 +0530,
143,0,143,[-0.04583333333333333],[-0.058333333333333334],[1],[0],[0],[1.258299499982968],['target'],143,0,143,0,219.70157849998213,,5,219.69339550007135,219.70157849998213,219.70157849998213,0.011719200061634183,220.9521137000993,[-0.04583333333333333],[-0.058333333333333334],[1],[0],[0],[1.258299499982968],['target'],994610,001,2024-10-11_11h34.18.911,visual search experiement,2024.2.1post4,59.79849100039085,2024-10-11 11h34.25.059141 +0530,
144,0,144,[0.10166666666666667],[-0.2725],[1],[0],[0],[1.1479289000853896],['target'],144,0,144,0,220.99239260004833,,10,220.9778740000911,220.99239260004833,220.99239260004833,0.025632399832829833,222.12611500010826,[0.10166666666666667],[-0.2725],[1],[0],[0],[1.1479289000853896],['target'],994610,001,2024-10-11_11h34.18.911,visual search experiement,2024.2.1post4,59.79849100039085,2024-10-11 11h34.25.059141 +0530,
145,0,145,[-0.31],[0.11416666666666667],[1],[0],[0],[2.0747326998971403],['target'],145,0,145,0,222.1465390000958,,5,222.13871300010942,222.1465390000958,222.1465390000958,0.012437899829819798,224.21381830004975,[-0.31],[0.11416666666666667],[1],[0],[0],[2.0747326998971403],['target'],994610,001,2024-10-11_11h34.18.911,visual search experiement,2024.2.1post4,59.79849100039085,2024-10-11 11h34.25.059141 +0530,
146,0,146,[-0.09333333333333334],[0.3175],[1],[0],[0],[1.8162286998704076],['target'],146,0,146,0,224.25446989992633,,10,224.23765649995767,224.25446989992633,224.25446989992633,0.023687999928370118,226.05428480007686,[-0.09333333333333334],[0.3175],[1],[0],[0],[1.8162286998704076],['target'],994610,001,2024-10-11_11h34.18.911,visual search experiement,2024.2.1post4,59.79849100039085,2024-10-11 11h34.25.059141 +0530,
147,0,147,[-0.09333333333333334],[0.3175],[0],[0],[1],[0.35838270001113415],[None],147,0,147,0,226.07326790015213,,5,226.06589880003594,226.07326790015213,226.07326790015213,0.011434399988502264,226.42457829997875,[-0.09333333333333334],[0.3175],[0],[0],[1],[0.35838270001113415],[None],994610,001,2024-10-11_11h34.18.911,visual search experiement,2024.2.1post4,59.79849100039085,2024-10-11 11h34.25.059141 +0530,
148,0,148,[-0.09333333333333334],[0.3175],[0],[0],[1],[1.332565600052476],[None],148,0,148,0,226.46491290000267,,10,226.44943060004152,226.46491290000267,226.46491290000267,0.024735600221902132,227.78231230005622,[-0.09333333333333334],[0.3175],[0],[0],[1],[1.332565600052476],[None],994610,001,2024-10-11_11h34.18.911,visual search experiement,2024.2.1post4,59.79849100039085,2024-10-11 11h34.25.059141 +0530,
149,0,149,[-0.09333333333333334],[0.3175],[0],[0],[1],[0.3264197001699358],[None],149,0,149,0,227.80206100014038,,5,227.79417370003648,227.80206100014038,227.80206100014038,0.01171059999614954,228.12105250009336,[-0.09333333333333334],[0.3175],[0],[0],[1],[0.3264197001699358],[None],994610,001,2024-10-11_11h34.18.911,visual search experiement,2024.2.1post4,59.79849100039085,2024-10-11 11h34.25.059141 +0530,
150,0,150,[-0.09333333333333334],[0.3175],[0],[0],[1],[0.3099061001557857],[None],150,0,150,0,228.14280540007167,,5,228.13317120005377,228.14280540007167,228.14280540007167,0.01198129984550178,228.4434388000518,[-0.09333333333333334],[0.3175],[0],[0],[1],[0.3099061001557857],[None],994610,001,2024-10-11_11h34.18.911,visual search experiement,2024.2.1post4,59.79849100039085,2024-10-11 11h34.25.059141 +0530,
151,0,151,[-0.09333333333333334],[0.3175],[0],[0],[1],[0.2418683001305908],[None],151,0,151,0,228.46299919998273,,5,228.45548440003768,228.46299919998273,228.46299919998273,0.011888900073245168,228.69767770008184,[-0.09333333333333334],[0.3175],[0],[0],[1],[0.2418683001305908],[None],994610,001,2024-10-11_11h34.18.911,visual search experiement,2024.2.1post4,59.79849100039085,2024-10-11 11h34.25.059141 +0530,
152,0,152,[-0.09333333333333334],[0.3175],[0],[0],[1],[0.2345329001545906],[None],152,0,152,0,228.73776059993543,,10,228.7206703000702,228.73776059993543,228.73776059993543,0.02283790009096265,228.95559970010072,[-0.09333333333333334],[0.3175],[0],[0],[1],[0.2345329001545906],[None],994610,001,2024-10-11_11h34.18.911,visual search experiement,2024.2.1post4,59.79849100039085,2024-10-11 11h34.25.059141 +0530,
153,0,153,[-0.11],[-0.035833333333333335],[1],[0],[0],[1.2249418999999762],['target'],153,0,153,0,228.97545240004547,,5,228.96763470000587,228.97545240004547,228.97545240004547,0.011856499826535583,230.1929568001069,[-0.11],[-0.035833333333333335],[1],[0],[0],[1.2249418999999762],['target'],994610,001,2024-10-11_11h34.18.911,visual search experiement,2024.2.1post4,59.79849100039085,2024-10-11 11h34.25.059141 +0530,
154,0,154,[-0.15666666666666668],[-0.3925],[1],[0],[0],[1.0747057001572102],['target'],154,0,154,0,230.21253370004706,,5,230.20489330007695,230.21253370004706,230.21253370004706,0.011751299956813455,231.27991280006245,[-0.15666666666666668],[-0.3925],[1],[0],[0],[1.0747057001572102],['target'],994610,001,2024-10-11_11h34.18.911,visual search experiement,2024.2.1post4,59.79849100039085,2024-10-11 11h34.25.059141 +0530,
155,0,155,[-0.47],[-0.0725],[1],[0],[0],[1.1250150999985635],['target'],155,0,155,0,231.30083189997822,,5,231.29288460011594,231.30083189997822,231.30083189997822,0.012844500131905079,232.41823579999618,[-0.47],[-0.0725],[1],[0],[0],[1.1250150999985635],['target'],994610,001,2024-10-11_11h34.18.911,visual search experiement,2024.2.1post4,59.79849100039085,2024-10-11 11h34.25.059141 +0530,
156,0,156,[-0.435],[0.3466666666666667],[1],[0],[0],[1.5580185998696834],['target'],156,0,156,0,232.43758439994417,,5,232.42985339998268,232.43758439994417,232.43758439994417,0.011484900023788214,233.9882127000019,[-0.435],[0.3466666666666667],[1],[0],[0],[1.5580185998696834],['target'],994610,001,2024-10-11_11h34.18.911,visual search experiement,2024.2.1post4,59.79849100039085,2024-10-11 11h34.25.059141 +0530,
157,0,157,[-0.30666666666666664],[0.12083333333333333],[1],[0],[0],[1.0672544999979436],['target'],157,0,157,0,234.02913599996828,,10,234.01121160015464,234.02913599996828,234.02913599996828,0.022862199926748872,235.0788019001484,[-0.30666666666666664],[0.12083333333333333],[1],[0],[0],[1.0672544999979436],['target'],994610,001,2024-10-11_11h34.18.911,visual search experiement,2024.2.1post4,59.79849100039085,2024-10-11 11h34.25.059141 +0530,
158,0,158,[-0.12583333333333332],[0.1775],[1],[0],[0],[1.0421504999976605],['target'],158,0,158,0,235.0997184999287,,5,235.09077090001665,235.0997184999287,235.0997184999287,0.011801500106230378,236.1333085000515,[-0.12583333333333332],[0.1775],[1],[0],[0],[1.0421504999976605],['target'],994610,001,2024-10-11_11h34.18.911,visual search experiement,2024.2.1post4,59.79849100039085,2024-10-11 11h34.25.059141 +0530,
159,0,159,[0.3466666666666667],[0.15916666666666668],[1],[0],[0],[1.4676913998555392],['target'],159,0,159,0,236.1739781999495,,10,236.1561869001016,236.1739781999495,236.1739781999495,0.022778899874538183,237.62422060011886,[0.3466666666666667],[0.15916666666666668],[1],[0],[0],[1.4676913998555392],['target'],994610,001,2024-10-11_11h34.18.911,visual search experiement,2024.2.1post4,59.79849100039085,2024-10-11 11h34.25.059141 +0530,
160,0,160,[-0.0016666666666666668],[-0.3075],[1],[0],[0],[1.294990299968049],['target'],160,0,160,0,237.66543680010363,,10,237.6472716999706,237.66543680010363,237.66543680010363,0.02288910001516342,238.9427056000568,[-0.0016666666666666668],[-0.3075],[1],[0],[0],[1.294990299968049],['target'],994610,001,2024-10-11_11h34.18.911,visual search experiement,2024.2.1post4,59.79849100039085,2024-10-11 11h34.25.059141 +0530,
161,0,161,[0.0016666666666666668],[-0.058333333333333334],[1],[0],[0],[2.001682500122115],['target'],161,0,161,0,238.973009099951,,5,238.95431159995496,238.973009099951,238.973009099951,0.011442099930718541,240.95631569996476,[0.0016666666666666668],[-0.058333333333333334],[1],[0],[0],[2.001682500122115],['target'],994610,001,2024-10-11_11h34.18.911,visual search experiement,2024.2.1post4,59.79849100039085,2024-10-11 11h34.25.059141 +0530,
162,0,162,[0.0525],[-0.36666666666666664],[1],[0],[0],[2.694424199871719],['target'],162,0,162,0,240.99700430012308,,10,240.97888740012422,240.99700430012308,240.99700430012308,0.02242839988321066,243.67383989994414,[0.0525],[-0.36666666666666664],[1],[0],[0],[2.694424199871719],['target'],994610,001,2024-10-11_11h34.18.911,visual search experiement,2024.2.1post4,59.79849100039085,2024-10-11 11h34.25.059141 +0530,
163,0,163,[0.4575],[-0.4033333333333333],[1],[0],[0],[1.6678432000335306],['target'],163,0,163,0,243.70411009993404,,5,243.68616000004113,243.70411009993404,243.70411009993404,0.012096900027245283,245.3543436001055,[0.4575],[-0.4033333333333333],[1],[0],[0],[1.6678432000335306],['target'],994610,001,2024-10-11_11h34.18.911,visual search experiement,2024.2.1post4,59.79849100039085,2024-10-11 11h34.25.059141 +0530,
164,0,164,[-0.1625],[-0.24166666666666667],[1],[0],[0],[1.2514917000662535],['target'],164,0,164,0,245.3953033001162,,10,245.37677430012263,245.3953033001162,245.3953033001162,0.02227910002693534,246.62866219994612,[-0.1625],[-0.24166666666666667],[1],[0],[0],[1.2514917000662535],['target'],994610,001,2024-10-11_11h34.18.911,visual search experiement,2024.2.1post4,59.79849100039085,2024-10-11 11h34.25.059141 +0530,
165,0,165,[0.10916666666666666],[-0.1225],[1],[0],[0],[1.1351501001045108],['target'],165,0,165,0,246.66909079998732,,10,246.65150479995646,246.66909079998732,246.66909079998732,0.022670899983495474,247.78703290014528,[0.10916666666666666],[-0.1225],[1],[0],[0],[1.1351501001045108],['target'],994610,001,2024-10-11_11h34.18.911,visual search experiement,2024.2.1post4,59.79849100039085,2024-10-11 11h34.25.059141 +0530,
166,0,166,[0.15],[0.47833333333333333],[1],[0],[0],[2.325221600010991],[None],166,0,166,0,247.80761740007438,,5,247.79916610009968,247.80761740007438,247.80761740007438,0.011964099947363138,250.12474790005945,[0.15],[0.47833333333333333],[1],[0],[0],[2.325221600010991],[None],994610,001,2024-10-11_11h34.18.911,visual search experiement,2024.2.1post4,59.79849100039085,2024-10-11 11h34.25.059141 +0530,
167,0,167,[0.255],[0.18333333333333332],[0],[0],[1],[1.5174309997819364],[None],167,0,167,0,250.16551810014062,,10,250.147343599936,250.16551810014062,250.16551810014062,0.02244760002940893,251.66509989998303,[0.255],[0.18333333333333332],[0],[0],[1],[1.5174309997819364],[None],994610,001,2024-10-11_11h34.18.911,visual search experiement,2024.2.1post4,59.79849100039085,2024-10-11 11h34.25.059141 +0530,
168,0,168,[0.255],[0.18333333333333332],[0],[0],[1],[0.8423547998536378],[None],168,0,168,0,251.68608379992656,,5,251.67772929999046,251.68608379992656,251.68608379992656,0.012478899909183383,252.52039970015176,[0.255],[0.18333333333333332],[0],[0],[1],[0.8423547998536378],[None],994610,001,2024-10-11_11h34.18.911,visual search experiement,2024.2.1post4,59.79849100039085,2024-10-11 11h34.25.059141 +0530,
169,0,169,[0.1325],[0.41583333333333333],[1],[0],[0],[2.2687652001623064],['target'],169,0,169,0,252.54126240010373,,5,252.53288349998184,252.54126240010373,252.54126240010373,0.012358299922198057,254.80198510014452,[0.1325],[0.41583333333333333],[1],[0],[0],[2.2687652001623064],['target'],994610,001,2024-10-11_11h34.18.911,visual search experiement,2024.2.1post4,59.79849100039085,2024-10-11 11h34.25.059141 +0530,
170,0,170,[0.29333333333333333],[0.4866666666666667],[1],[0],[0],[3.6118395999073982],['target'],170,0,170,0,254.8377424001228,,10,254.82488620001823,254.8377424001228,254.8377424001228,0.02277769986540079,258.43705780012533,[0.29333333333333333],[0.4866666666666667],[1],[0],[0],[3.6118395999073982],['target'],994610,001,2024-10-11_11h34.18.911,visual search experiement,2024.2.1post4,59.79849100039085,2024-10-11 11h34.25.059141 +0530,
171,0,171,[0.09333333333333334],[-0.3675],[1],[0],[0],[3.7674585001077503],['target'],171,0,171,0,258.47796860011294,,10,258.4593515000306,258.47796860011294,258.47796860011294,0.022143499925732613,262.2271966000553,[0.09333333333333334],[-0.3675],[1],[0],[0],[3.7674585001077503],['target'],994610,001,2024-10-11_11h34.18.911,visual search experiement,2024.2.1post4,59.79849100039085,2024-10-11 11h34.25.059141 +0530,
172,0,172,[0.16416666666666666],[0.12583333333333332],[1],[0],[0],[1.7852893001399934],['target'],172,0,172,0,262.2682626999449,,10,262.25024640001357,262.2682626999449,262.2682626999449,0.0228620998095721,264.0359738001134,[0.16416666666666666],[0.12583333333333332],[1],[0],[0],[1.7852893001399934],['target'],994610,001,2024-10-11_11h34.18.911,visual search experiement,2024.2.1post4,59.79849100039085,2024-10-11 11h34.25.059141 +0530,
173,0,173,[0.32916666666666666],[-0.13166666666666665],[1],[0],[0],[1.5003808001056314],['target'],173,0,173,0,264.0755429000128,,10,264.0584714000579,264.0755429000128,264.0755429000128,0.02234140015207231,265.55923220003024,[0.32916666666666666],[-0.13166666666666665],[1],[0],[0],[1.5003808001056314],['target'],994610,001,2024-10-11_11h34.18.911,visual search experiement,2024.2.1post4,59.79849100039085,2024-10-11 11h34.25.059141 +0530,
174,0,174,[0.27166666666666667],[-0.2733333333333333],[1],[0],[0],[0.9923000000417233],['target'],174,0,174,0,265.57853109994903,,5,265.5707356000785,265.57853109994903,265.57853109994903,0.011312900111079216,266.5633696001023,[0.27166666666666667],[-0.2733333333333333],[1],[0],[0],[0.9923000000417233],['target'],994610,001,2024-10-11_11h34.18.911,visual search experiement,2024.2.1post4,59.79849100039085,2024-10-11 11h34.25.059141 +0530,
175,0,175,[0.13666666666666666],[0.3016666666666667],[1],[0],[0],[1.735997100127861],['target'],175,0,175,0,266.58354260004126,,5,266.5749866999686,266.58354260004126,266.58354260004126,0.011486700037494302,268.31144710001536,[0.13666666666666666],[0.3016666666666667],[1],[0],[0],[1.735997100127861],['target'],994610,001,2024-10-11_11h34.18.911,visual search experiement,2024.2.1post4,59.79849100039085,2024-10-11 11h34.25.059141 +0530,
176,0,176,[-0.060833333333333336],[0.49],[1],[0],[0],[1.8844980001449585],['target'],176,0,176,0,268.34195200004615,,5,268.3230717999395,268.34195200004615,268.34195200004615,0.011493700090795755,270.2079581001308,[-0.060833333333333336],[0.49],[1],[0],[0],[1.8844980001449585],['target'],994610,001,2024-10-11_11h34.18.911,visual search experiement,2024.2.1post4,59.79849100039085,2024-10-11 11h34.25.059141 +0530,
177,0,177,[-0.056666666666666664],[0.034166666666666665],[1],[0],[0],[2.28277530008927],['target'],177,0,177,0,270.2483356001321,,10,270.2324872999452,270.2483356001321,270.2483356001321,0.024396900087594986,272.5156201000791,[-0.056666666666666664],[0.034166666666666665],[1],[0],[0],[2.28277530008927],['target'],994610,001,2024-10-11_11h34.18.911,visual search experiement,2024.2.1post4,59.79849100039085,2024-10-11 11h34.25.059141 +0530,
178,0,178,[0.12333333333333334],[-0.0725],[1],[0],[0],[1.2086355001665652],['target'],178,0,178,0,272.53638170007616,,5,272.52728249994107,272.53638170007616,272.53638170007616,0.01148990006186068,273.7363370000385,[0.12333333333333334],[-0.0725],[1],[0],[0],[1.2086355001665652],['target'],994610,001,2024-10-11_11h34.18.911,visual search experiement,2024.2.1post4,59.79849100039085,2024-10-11 11h34.25.059141 +0530,
179,0,179,[0.03333333333333333],[0.1725],[1],[0],[0],[1.033407999901101],['target'],179,0,179,0,273.77700190013275,,10,273.7605626001023,273.77700190013275,273.77700190013275,0.024017299991101027,274.7944106000941,[0.03333333333333333],[0.1725],[1],[0],[0],[1.033407999901101],['target'],994610,001,2024-10-11_11h34.18.911,visual search experiement,2024.2.1post4,59.79849100039085,2024-10-11 11h34.25.059141 +0530,
180,0,180,[0.16833333333333333],[0.009166666666666667],[1],[0],[0],[1.1422783001326025],['target'],180,0,180,0,274.8153163001407,,5,274.8062446999829,274.8153163001407,274.8153163001407,0.01165580004453659,275.9488772000186,[0.16833333333333333],[0.009166666666666667],[1],[0],[0],[1.1422783001326025],['target'],994610,001,2024-10-11_11h34.18.911,visual search experiement,2024.2.1post4,59.79849100039085,2024-10-11 11h34.25.059141 +0530,
181,0,181,[-0.22166666666666668],[0.4825],[1],[0],[0],[2.5186489999759942],['target'],181,0,181,0,275.9690390001051,,5,275.96058259997517,275.9690390001051,275.9690390001051,0.011566299945116043,278.4797016000375,[-0.22166666666666668],[0.4825],[1],[0],[0],[2.5186489999759942],['target'],994610,001,2024-10-11_11h34.18.911,visual search experiement,2024.2.1post4,59.79849100039085,2024-10-11 11h34.25.059141 +0530,
182,0,182,[0.1325],[0.42583333333333334],[1],[0],[0],[1.0846398998983204],['target'],182,0,182,0,278.5102166000288,,5,278.49195139994845,278.5102166000288,278.5102166000288,0.012077299878001213,279.5770030000713,[0.1325],[0.42583333333333334],[1],[0],[0],[1.0846398998983204],['target'],994610,001,2024-10-11_11h34.18.911,visual search experiement,2024.2.1post4,59.79849100039085,2024-10-11 11h34.25.059141 +0530,
183,0,183,[0.10583333333333333],[0.2925],[1],[0],[0],[0.8754778001457453],['target'],183,0,183,0,279.5979027999565,,5,279.58857690007426,279.5979027999565,279.5979027999565,0.011428700061514974,280.4644083001185,[0.10583333333333333],[0.2925],[1],[0],[0],[0.8754778001457453],['target'],994610,001,2024-10-11_11h34.18.911,visual search experiement,2024.2.1post4,59.79849100039085,2024-10-11 11h34.25.059141 +0530,
184,0,184,[-0.19],[-0.055],[1],[0],[0],[1.2185959999915212],['target'],184,0,184,0,280.5053177999798,,10,280.48671690002084,280.5053177999798,280.5053177999798,0.02215269999578595,281.70565010001883,[-0.19],[-0.055],[1],[0],[0],[1.2185959999915212],['target'],994610,001,2024-10-11_11h34.18.911,visual search experiement,2024.2.1post4,59.79849100039085,2024-10-11 11h34.25.059141 +0530,
185,0,185,[-0.275],[0.013333333333333334],[1],[0],[0],[1.0426533001009375],['target'],185,0,185,0,281.7260090999771,,5,281.71728550014086,281.7260090999771,281.7260090999771,0.011478400090709329,282.760407499969,[-0.275],[0.013333333333333334],[1],[0],[0],[1.0426533001009375],['target'],994610,001,2024-10-11_11h34.18.911,visual search experiement,2024.2.1post4,59.79849100039085,2024-10-11 11h34.25.059141 +0530,
186,0,186,[-0.07166666666666667],[-0.175],[1],[0],[0],[1.1433133999817073],['target'],186,0,186,0,282.79960289993323,,10,282.78398409998044,282.79960289993323,282.79960289993323,0.023401200072839856,283.9276288000401,[-0.07166666666666667],[-0.175],[1],[0],[0],[1.1433133999817073],['target'],994610,001,2024-10-11_11h34.18.911,visual search experiement,2024.2.1post4,59.79849100039085,2024-10-11 11h34.25.059141 +0530,
187,0,187,[0.08333333333333333],[-0.024166666666666666],[1],[0],[0],[1.229782500071451],['target'],187,0,187,0,283.96390500012785,,10,283.950844099978,283.96390500012785,283.96390500012785,0.02301679993979633,285.1809613001533,[0.08333333333333333],[-0.024166666666666666],[1],[0],[0],[1.229782500071451],['target'],994610,001,2024-10-11_11h34.18.911,visual search experiement,2024.2.1post4,59.79849100039085,2024-10-11 11h34.25.059141 +0530,
188,0,188,[-0.0075],[-0.4266666666666667],[1],[0],[0],[1.3090518999379128],['target'],188,0,188,0,285.2011851000134,,5,285.19256650004536,285.2011851000134,285.2011851000134,0.011451700003817677,286.50197580014355,[-0.0075],[-0.4266666666666667],[1],[0],[0],[1.3090518999379128],['target'],994610,001,2024-10-11_11h34.18.911,visual search experiement,2024.2.1post4,59.79849100039085,2024-10-11 11h34.25.059141 +0530,
189,0,189,[-0.14083333333333334],[-0.22583333333333333],[0],[0],[1],[1.074799999827519],[None],189,0,189,0,286.52259700000286,,5,286.51409350009635,286.52259700000286,286.52259700000286,0.011966000078245997,287.5891804001294,[-0.14083333333333334],[-0.22583333333333333],[0],[0],[1],[1.074799999827519],[None],994610,001,2024-10-11_11h34.18.911,visual search experiement,2024.2.1post4,59.79849100039085,2024-10-11 11h34.25.059141 +0530,
190,0,190,[-0.14083333333333334],[-0.22583333333333333],[0],[0],[1],[0.2866444999817759],[None],190,0,190,0,287.6302480001468,,10,287.61256580008194,287.6302480001468,287.6302480001468,0.023261099820956588,287.8996562999673,[-0.14083333333333334],[-0.22583333333333333],[0],[0],[1],[0.2866444999817759],[None],994610,001,2024-10-11_11h34.18.911,visual search experiement,2024.2.1post4,59.79849100039085,2024-10-11 11h34.25.059141 +0530,
191,0,191,[-0.14083333333333334],[-0.22583333333333333],[0],[0],[1],[0.2640335999894887],[None],191,0,191,0,287.93799280002713,,10,287.9246670000721,287.93799280002713,287.93799280002713,0.024854700081050396,288.18905299995095,[-0.14083333333333334],[-0.22583333333333333],[0],[0],[1],[0.2640335999894887],[None],994610,001,2024-10-11_11h34.18.911,visual search experiement,2024.2.1post4,59.79849100039085,2024-10-11 11h34.25.059141 +0530,
192,0,192,[-0.14083333333333334],[-0.22583333333333333],[0],[0],[1],[0.2425663999747485],[None],192,0,192,0,288.209337499924,,5,288.20127480011433,288.209337499924,288.209337499924,0.012032599886879325,288.4441573000513,[-0.14083333333333334],[-0.22583333333333333],[0],[0],[1],[0.2425663999747485],[None],994610,001,2024-10-11_11h34.18.911,visual search experiement,2024.2.1post4,59.79849100039085,2024-10-11 11h34.25.059141 +0530,
193,0,193,[-0.14083333333333334],[-0.22583333333333333],[0],[0],[1],[0.2922504001762718],[None],193,0,193,0,288.46446310007013,,5,288.45593050005846,288.46446310007013,288.46446310007013,0.011642599944025278,288.7485080000479,[-0.14083333333333334],[-0.22583333333333333],[0],[0],[1],[0.2922504001762718],[None],994610,001,2024-10-11_11h34.18.911,visual search experiement,2024.2.1post4,59.79849100039085,2024-10-11 11h34.25.059141 +0530,
194,0,194,[-0.5216666666666666],[-0.44333333333333336],[1],[0],[0],[1.6416484999936074],['target'],194,0,194,0,288.76966099999845,,5,288.76206870004535,288.76966099999845,288.76966099999845,0.013432699954137206,290.4042311999947,[-0.5216666666666666],[-0.44333333333333336],[1],[0],[0],[1.6416484999936074],['target'],994610,001,2024-10-11_11h34.18.911,visual search experiement,2024.2.1post4,59.79849100039085,2024-10-11 11h34.25.059141 +0530,
195,0,195,[0.49583333333333335],[-0.22333333333333333],[1],[0],[0],[1.2594280000776052],['target'],195,0,195,0,290.42460780008696,,5,290.4160389001481,290.42460780008696,290.42460780008696,0.011651800014078617,291.675920000067,[0.49583333333333335],[-0.22333333333333333],[1],[0],[0],[1.2594280000776052],['target'],994610,001,2024-10-11_11h34.18.911,visual search experiement,2024.2.1post4,59.79849100039085,2024-10-11 11h34.25.059141 +0530,
196,0,196,[-0.30083333333333334],[-0.2816666666666667],[1],[0],[0],[1.1339583999942988],['target'],196,0,196,0,291.71565210004337,,10,291.6988737001084,291.71565210004337,291.71565210004337,0.022793599870055914,292.8331580001395,[-0.30083333333333334],[-0.2816666666666667],[1],[0],[0],[1.1339583999942988],['target'],994610,001,2024-10-11_11h34.18.911,visual search experiement,2024.2.1post4,59.79849100039085,2024-10-11 11h34.25.059141 +0530,
197,0,197,[-0.4075],[0.44333333333333336],[1],[0],[0],[1.6418848000466824],['target'],197,0,197,0,292.8531403001398,,5,292.8446406000294,292.8531403001398,292.8531403001398,0.01132089993916452,294.48692489997484,[-0.4075],[0.44333333333333336],[1],[0],[0],[1.6418848000466824],['target'],994610,001,2024-10-11_11h34.18.911,visual search experiement,2024.2.1post4,59.79849100039085,2024-10-11 11h34.25.059141 +0530,
198,0,198,[-0.22083333333333333],[-0.0175],[1],[0],[0],[1.0719778998754919],['target'],198,0,198,0,294.52687399997376,,5,294.5056823999621,294.52687399997376,294.52687399997376,0.018557699862867594,295.57802939997055,[-0.22083333333333333],[-0.0175],[1],[0],[0],[1.0719778998754919],['target'],994610,001,2024-10-11_11h34.18.911,visual search experiement,2024.2.1post4,59.79849100039085,2024-10-11 11h34.25.059141 +0530,
199,0,199,[-0.49333333333333335],[0.4816666666666667],[1],[0],[0],[1.6428706999868155],['target'],199,0,199,0,295.5996247001458,,5,295.5910718999803,295.5996247001458,295.5996247001458,0.012916100211441517,297.23437019996345,[-0.49333333333333335],[0.4816666666666667],[1],[0],[0],[1.6428706999868155],['target'],994610,001,2024-10-11_11h34.18.911,visual search experiement,2024.2.1post4,59.79849100039085,2024-10-11 11h34.25.059141 +0530,
