thisN,thisTrialN,thisRepN,mouse.x,mouse.y,mouse.leftButton,mouse.midButton,mouse.rightButton,mouse.time,mouse.clicked_name,trials.thisRepN,trials.thisTrialN,trials.thisN,trials.thisIndex,thisRow.t,notes,num_distr,trial.started,fixation.started,target.started,mouse.started,trial.stopped,trials.mouse.x,trials.mouse.y,trials.mouse.leftButton,trials.mouse.midButton,trials.mouse.rightButton,trials.mouse.time,trials.mouse.clicked_name,participant,session,date,expName,psychopyVersion,frameRate,expStart,
0,0,0,[-0.4166666666666667],[0.29583333333333334],[1],[0],[0],[1.3251014999113977],['target'],0,0,0,0,0.050440399907529354,,5,0.02698739990592003,0.050440399907529354,0.050440399907529354,0.026701599825173616,1.3525318999309093,[-0.4166666666666667],[0.29583333333333334],[1],[0],[0],[1.3251014999113977],['target'],523662,001,2024-10-11_11h51.19.639,visual search experiement,2024.2.1post4,59.81963183759981,2024-10-11 11h51.35.021398 +0530,
1,0,1,[0.25166666666666665],[0.20916666666666667],[1],[0],[0],[1.8823390000034124],['target'],1,0,1,0,1.3901047001127154,,10,1.375874200137332,1.3901047001127154,1.3901047001127154,0.023194900015369058,3.258685600012541,[0.25166666666666665],[0.20916666666666667],[1],[0],[0],[1.8823390000034124],['target'],523662,001,2024-10-11_11h51.19.639,visual search experiement,2024.2.1post4,59.81963183759981,2024-10-11 11h51.35.021398 +0530,
2,0,2,[-0.050833333333333335],[0.2708333333333333],[1],[0],[0],[1.0591101001482457],['target'],2,0,2,0,3.279391699936241,,5,3.2710184000898153,3.279391699936241,3.279391699936241,0.012106700101867318,4.330556400120258,[-0.050833333333333335],[0.2708333333333333],[1],[0],[0],[1.0591101001482457],['target'],523662,001,2024-10-11_11h51.19.639,visual search experiement,2024.2.1post4,59.81963183759981,2024-10-11 11h51.35.021398 +0530,
3,0,3,[-0.1775],[-0.475],[1],[0],[0],[2.9241390000097454],['target'],3,0,3,0,4.350595399970189,,5,4.34274740004912,4.350595399970189,4.350595399970189,0.012053900165483356,7.267250600038096,[-0.1775],[-0.475],[1],[0],[0],[2.9241390000097454],['target'],523662,001,2024-10-11_11h51.19.639,visual search experiement,2024.2.1post4,59.81963183759981,2024-10-11 11h51.35.021398 +0530,
4,0,4,[0.24416666666666667],[0.19166666666666668],[1],[0],[0],[1.3912714999169111],['target'],4,0,4,0,7.28740520006977,,5,7.27918569999747,7.28740520006977,7.28740520006977,0.011802100110799074,8.670820000115782,[0.24416666666666667],[0.19166666666666668],[1],[0],[0],[1.3912714999169111],['target'],523662,001,2024-10-11_11h51.19.639,visual search experiement,2024.2.1post4,59.81963183759981,2024-10-11 11h51.35.021398 +0530,
5,0,5,[0.38],[-0.24083333333333334],[1],[0],[0],[1.9837714000605047],['target'],5,0,5,0,8.711570000043139,,10,8.69511829991825,8.711570000043139,8.711570000043139,0.024142300011590123,10.679330199956894,[0.38],[-0.24083333333333334],[1],[0],[0],[1.9837714000605047],['target'],523662,001,2024-10-11_11h51.19.639,visual search experiement,2024.2.1post4,59.81963183759981,2024-10-11 11h51.35.021398 +0530,
6,0,6,[-0.45],[0.2866666666666667],[1],[0],[0],[1.3579190000891685],['target'],6,0,6,0,10.701300000073388,,5,10.69267260003835,10.701300000073388,10.701300000073388,0.013142199954017997,12.050939199980348,[-0.45],[0.2866666666666667],[1],[0],[0],[1.3579190000891685],['target'],523662,001,2024-10-11_11h51.19.639,visual search experiement,2024.2.1post4,59.81963183759981,2024-10-11 11h51.35.021398 +0530,
7,0,7,[0.0725],[0.2925],[1],[0],[0],[2.0174905001185834],['target'],7,0,7,0,12.092387200100347,,10,12.074155099922791,12.092387200100347,12.092387200100347,0.023080899845808744,14.091997900046408,[0.0725],[0.2925],[1],[0],[0],[2.0174905001185834],['target'],523662,001,2024-10-11_11h51.19.639,visual search experiement,2024.2.1post4,59.81963183759981,2024-10-11 11h51.35.021398 +0530,
8,0,8,[0.25833333333333336],[0.056666666666666664],[1],[0],[0],[1.4345296998508275],['target'],8,0,8,0,14.133121700026095,,10,14.115361500065774,14.133121700026095,14.133121700026095,0.02312940009869635,15.55033509992063,[0.25833333333333336],[0.056666666666666664],[1],[0],[0],[1.4345296998508275],['target'],523662,001,2024-10-11_11h51.19.639,visual search experiement,2024.2.1post4,59.81963183759981,2024-10-11 11h51.35.021398 +0530,
9,0,9,[0.051666666666666666],[0.14916666666666667],[1],[0],[0],[0.9596955999732018],['target'],9,0,9,0,15.571313000051305,,5,15.562293299939483,15.571313000051305,15.571313000051305,0.011791700031608343,16.522431200137362,[0.051666666666666666],[0.14916666666666667],[1],[0],[0],[0.9596955999732018],['target'],523662,001,2024-10-11_11h51.19.639,visual search experiement,2024.2.1post4,59.81963183759981,2024-10-11 11h51.35.021398 +0530,
10,0,10,[0.23666666666666666],[0.4575],[1],[0],[0],[2.307752799941227],['target'],10,0,10,0,16.561429100111127,,10,16.54748750012368,16.561429100111127,16.561429100111127,0.024922600015997887,18.855725799920037,[0.23666666666666666],[0.4575],[1],[0],[0],[2.307752799941227],['target'],523662,001,2024-10-11_11h51.19.639,visual search experiement,2024.2.1post4,59.81963183759981,2024-10-11 11h51.35.021398 +0530,
11,0,11,[0.1],[-0.44166666666666665],[1],[0],[0],[2.062911400105804],['target'],11,0,11,0,18.89120399998501,,10,18.878865800099447,18.89120399998501,18.89120399998501,0.022969000041484833,20.942140500061214,[0.1],[-0.44166666666666665],[1],[0],[0],[2.062911400105804],['target'],523662,001,2024-10-11_11h51.19.639,visual search experiement,2024.2.1post4,59.81963183759981,2024-10-11 11h51.35.021398 +0530,
12,0,12,[0.44083333333333335],[0.11166666666666666],[1],[0],[0],[1.3746835000347346],['target'],12,0,12,0,20.96332859992981,,5,20.954382099909708,20.96332859992981,20.96332859992981,0.012013599975034595,22.329390600090846,[0.44083333333333335],[0.11166666666666666],[1],[0],[0],[1.3746835000347346],['target'],523662,001,2024-10-11_11h51.19.639,visual search experiement,2024.2.1post4,59.81963183759981,2024-10-11 11h51.35.021398 +0530,
13,0,13,[-0.2425],[-0.42583333333333334],[1],[0],[0],[1.64211199991405],['target'],13,0,13,0,22.350592599948868,,5,22.34124740003608,22.350592599948868,22.350592599948868,0.011722799856215715,23.98367469990626,[-0.2425],[-0.42583333333333334],[1],[0],[0],[1.64211199991405],['target'],523662,001,2024-10-11_11h51.19.639,visual search experiement,2024.2.1post4,59.81963183759981,2024-10-11 11h51.35.021398 +0530,
14,0,14,[0.04083333333333333],[0.35],[1],[0],[0],[1.552059199893847],['target'],14,0,14,0,24.02446290012449,,10,24.007055500056595,24.02446290012449,24.02446290012449,0.023230900056660175,25.559432399924845,[0.04083333333333333],[0.35],[1],[0],[0],[1.552059199893847],['target'],523662,001,2024-10-11_11h51.19.639,visual search experiement,2024.2.1post4,59.81963183759981,2024-10-11 11h51.35.021398 +0530,
15,0,15,[0.3875],[0.32166666666666666],[1],[0],[0],[1.583638699958101],['target'],15,0,15,0,25.59892400004901,,10,25.58231720002368,25.59892400004901,25.59892400004901,0.02272060001268983,27.166441000066698,[0.3875],[0.32166666666666666],[1],[0],[0],[1.583638699958101],['target'],523662,001,2024-10-11_11h51.19.639,visual search experiement,2024.2.1post4,59.81963183759981,2024-10-11 11h51.35.021398 +0530,
16,0,16,[-0.0175],[-0.058333333333333334],[1],[0],[0],[2.9014188000001013],['target'],16,0,16,0,27.18705329997465,,5,27.17923040012829,27.18705329997465,27.18705329997465,0.012574499938637018,30.080976699944586,[-0.0175],[-0.058333333333333334],[1],[0],[0],[2.9014188000001013],['target'],523662,001,2024-10-11_11h51.19.639,visual search experiement,2024.2.1post4,59.81963183759981,2024-10-11 11h51.35.021398 +0530,
17,0,17,[0.0725],[-0.09583333333333334],[1],[0],[0],[1.2182543000672013],['target'],17,0,17,0,30.111590099986643,,5,30.092947399942204,30.111590099986643,30.111590099986643,0.011840499937534332,31.31154810008593,[0.0725],[-0.09583333333333334],[1],[0],[0],[1.2182543000672013],['target'],523662,001,2024-10-11_11h51.19.639,visual search experiement,2024.2.1post4,59.81963183759981,2024-10-11 11h51.35.021398 +0530,
18,0,18,[0.3575],[0.06583333333333333],[1],[0],[0],[1.6677723000757396],['target'],18,0,18,0,31.35277649993077,,10,31.33436940005049,31.35277649993077,31.35277649993077,0.022693400038406253,33.00249140011147,[0.3575],[0.06583333333333333],[1],[0],[0],[1.6677723000757396],['target'],523662,001,2024-10-11_11h51.19.639,visual search experiement,2024.2.1post4,59.81963183759981,2024-10-11 11h51.35.021398 +0530,
19,0,19,[-0.07916666666666666],[0.3275],[1],[0],[0],[1.0922709999140352],['target'],19,0,19,0,33.02353939996101,,5,33.014493900118396,33.02353939996101,33.02353939996101,0.011844299966469407,34.10713000013493,[-0.07916666666666666],[0.3275],[1],[0],[0],[1.0922709999140352],['target'],523662,001,2024-10-11_11h51.19.639,visual search experiement,2024.2.1post4,59.81963183759981,2024-10-11 11h51.35.021398 +0530,
20,0,20,[-0.03666666666666667],[0.38666666666666666],[1],[0],[0],[0.9840353999752551],['target'],20,0,20,0,34.14744050009176,,10,34.130163399968296,34.14744050009176,34.14744050009176,0.022905799793079495,35.11456890008412,[-0.03666666666666667],[0.38666666666666666],[1],[0],[0],[0.9840353999752551],['target'],523662,001,2024-10-11_11h51.19.639,visual search experiement,2024.2.1post4,59.81963183759981,2024-10-11 11h51.35.021398 +0530,
21,0,21,[0.3591666666666667],[0.2575],[1],[0],[0],[2.2777237000409514],['target'],21,0,21,0,35.15553020010702,,10,35.137402599910274,35.15553020010702,35.15553020010702,0.022678100038319826,37.41547579993494,[0.3591666666666667],[0.2575],[1],[0],[0],[2.2777237000409514],['target'],523662,001,2024-10-11_11h51.19.639,visual search experiement,2024.2.1post4,59.81963183759981,2024-10-11 11h51.35.021398 +0530,
22,0,22,[-0.42833333333333334],[-0.36833333333333335],[1],[0],[0],[1.4026019000448287],['target'],22,0,22,0,37.44553510006517,,5,37.42763620009646,37.44553510006517,37.44553510006517,0.011984500102698803,38.8307092001196,[-0.42833333333333334],[-0.36833333333333335],[1],[0],[0],[1.4026019000448287],['target'],523662,001,2024-10-11_11h51.19.639,visual search experiement,2024.2.1post4,59.81963183759981,2024-10-11 11h51.35.021398 +0530,
23,0,23,[0.38166666666666665],[-0.17916666666666667],[1],[0],[0],[2.0579244000837207],['target'],23,0,23,0,38.85144230001606,,5,38.84280360001139,38.85144230001606,38.85144230001606,0.011962400050833821,40.901095299981534,[0.38166666666666665],[-0.17916666666666667],[1],[0],[0],[2.0579244000837207],['target'],523662,001,2024-10-11_11h51.19.639,visual search experiement,2024.2.1post4,59.81963183759981,2024-10-11 11h51.35.021398 +0530,
24,0,24,[0.36083333333333334],[-0.23],[1],[0],[0],[1.0844574000220746],['target'],24,0,24,0,40.94184980005957,,10,40.92432290012948,40.94184980005957,40.94184980005957,0.023076999932527542,42.00910650007427,[0.36083333333333334],[-0.23],[1],[0],[0],[1.0844574000220746],['target'],523662,001,2024-10-11_11h51.19.639,visual search experiement,2024.2.1post4,59.81963183759981,2024-10-11 11h51.35.021398 +0530,
25,0,25,[0.36083333333333334],[-0.23],[0],[0],[1],[1.4922046000137925],[None],25,0,25,0,42.03002530010417,,5,42.02144729997963,42.03002530010417,42.03002530010417,0.012122099986299872,43.51396819995716,[0.36083333333333334],[-0.23],[0],[0],[1],[1.4922046000137925],[None],523662,001,2024-10-11_11h51.19.639,visual search experiement,2024.2.1post4,59.81963183759981,2024-10-11 11h51.35.021398 +0530,
26,0,26,[0.36083333333333334],[-0.23],[0],[0],[1],[0.20968159986659884],[None],26,0,26,0,43.5349731000606,,5,43.52584749995731,43.5349731000606,43.5349731000606,0.011742299888283014,43.73585420008749,[0.36083333333333334],[-0.23],[0],[0],[1],[0.20968159986659884],[None],523662,001,2024-10-11_11h51.19.639,visual search experiement,2024.2.1post4,59.81963183759981,2024-10-11 11h51.35.021398 +0530,
27,0,27,[0.36083333333333334],[-0.23],[0],[0],[1],[0.1588572000619024],[None],27,0,27,0,43.755829700035974,,5,43.74797930009663,43.755829700035974,43.755829700035974,0.011995800072327256,43.90722270007245,[0.36083333333333334],[-0.23],[0],[0],[1],[0.1588572000619024],[None],523662,001,2024-10-11_11h51.19.639,visual search experiement,2024.2.1post4,59.81963183759981,2024-10-11 11h51.35.021398 +0530,
28,0,28,[-0.17666666666666667],[-0.055],[1],[0],[0],[1.5330423000268638],['target'],28,0,28,0,43.94728090008721,,10,43.93110019993037,43.94728090008721,43.94728090008721,0.02374979993328452,45.464518199907616,[-0.17666666666666667],[-0.055],[1],[0],[0],[1.5330423000268638],['target'],523662,001,2024-10-11_11h51.19.639,visual search experiement,2024.2.1post4,59.81963183759981,2024-10-11 11h51.35.021398 +0530,
29,0,29,[-0.09166666666666666],[0.4583333333333333],[1],[0],[0],[1.3919340001884848],['target'],29,0,29,0,45.48563800007105,,5,45.47624760004692,45.48563800007105,45.48563800007105,0.011573099996894598,46.868535600136966,[-0.09166666666666666],[0.4583333333333333],[1],[0],[0],[1.3919340001884848],['target'],523662,001,2024-10-11_11h51.19.639,visual search experiement,2024.2.1post4,59.81963183759981,2024-10-11 11h51.35.021398 +0530,
30,0,30,[0.16],[-0.25666666666666665],[1],[0],[0],[3.0334044999908656],['target'],30,0,30,0,46.9097388999071,,10,46.89149389998056,46.9097388999071,46.9097388999071,0.022804700070992112,49.92526679998264,[0.16],[-0.25666666666666665],[1],[0],[0],[3.0334044999908656],['target'],523662,001,2024-10-11_11h51.19.639,visual search experiement,2024.2.1post4,59.81963183759981,2024-10-11 11h51.35.021398 +0530,
31,0,31,[0.12583333333333332],[0.06166666666666667],[1],[0],[0],[1.3083333999384195],['target'],31,0,31,0,49.946423300076276,,5,49.938820000039414,49.946423300076276,49.946423300076276,0.013396099908277392,51.24751030001789,[0.12583333333333332],[0.06166666666666667],[1],[0],[0],[1.3083333999384195],['target'],523662,001,2024-10-11_11h51.19.639,visual search experiement,2024.2.1post4,59.81963183759981,2024-10-11 11h51.35.021398 +0530,
32,0,32,[-0.3358333333333333],[0.37833333333333335],[1],[0],[0],[1.3351116999983788],['target'],32,0,32,0,51.28825909993611,,10,51.27042680000886,51.28825909993611,51.28825909993611,0.022765800124034286,52.60600110003725,[-0.3358333333333333],[0.37833333333333335],[1],[0],[0],[1.3351116999983788],['target'],523662,001,2024-10-11_11h51.19.639,visual search experiement,2024.2.1post4,59.81963183759981,2024-10-11 11h51.35.021398 +0530,
33,0,33,[0.345],[-0.16333333333333333],[1],[0],[0],[1.2758273999206722],['target'],33,0,33,0,52.62817319994792,,5,52.618970500072464,52.62817319994792,52.62817319994792,0.012773199938237667,53.89513950003311,[0.345],[-0.16333333333333333],[1],[0],[0],[1.2758273999206722],['target'],523662,001,2024-10-11_11h51.19.639,visual search experiement,2024.2.1post4,59.81963183759981,2024-10-11 11h51.35.021398 +0530,
34,0,34,[-0.26166666666666666],[0.18333333333333332],[1],[0],[0],[1.4162816000171006],['target'],34,0,34,0,53.936214399989694,,10,53.92027899995446,53.936214399989694,53.936214399989694,0.02500169980339706,55.33701830008067,[-0.26166666666666666],[0.18333333333333332],[1],[0],[0],[1.4162816000171006],['target'],523662,001,2024-10-11_11h51.19.639,visual search experiement,2024.2.1post4,59.81963183759981,2024-10-11 11h51.35.021398 +0530,
35,0,35,[0.060833333333333336],[0.09166666666666666],[1],[0],[0],[1.1761686999816447],['target'],35,0,35,0,55.358732300112024,,5,55.350361299933866,55.358732300112024,55.358732300112024,0.013149499893188477,56.526991500053555,[0.060833333333333336],[0.09166666666666666],[1],[0],[0],[1.1761686999816447],['target'],523662,001,2024-10-11_11h51.19.639,visual search experiement,2024.2.1post4,59.81963183759981,2024-10-11 11h51.35.021398 +0530,
36,0,36,[-0.23916666666666667],[-0.008333333333333333],[1],[0],[0],[1.0994800000917166],['target'],36,0,36,0,56.566972400061786,,10,56.55073949997313,56.566972400061786,56.566972400061786,0.0235854999627918,57.6505654999055,[-0.23916666666666667],[-0.008333333333333333],[1],[0],[0],[1.0994800000917166],['target'],523662,001,2024-10-11_11h51.19.639,visual search experiement,2024.2.1post4,59.81963183759981,2024-10-11 11h51.35.021398 +0530,
37,0,37,[-0.1275],[-0.3325],[1],[0],[0],[2.024835899937898],['target'],37,0,37,0,57.670573299983516,,5,57.662512300070375,57.670573299983516,57.670573299983516,0.011780300177633762,59.687816800083965,[-0.1275],[-0.3325],[1],[0],[0],[2.024835899937898],['target'],523662,001,2024-10-11_11h51.19.639,visual search experiement,2024.2.1post4,59.81963183759981,2024-10-11 11h51.35.021398 +0530,
38,0,38,[-0.24916666666666668],[0.14833333333333334],[1],[0],[0],[1.142663599923253],['target'],38,0,38,0,59.70867750002071,,5,59.699715700000525,59.70867750002071,59.70867750002071,0.011747400043532252,60.842749800067395,[-0.24916666666666668],[0.14833333333333334],[1],[0],[0],[1.142663599923253],['target'],523662,001,2024-10-11_11h51.19.639,visual search experiement,2024.2.1post4,59.81963183759981,2024-10-11 11h51.35.021398 +0530,
39,0,39,[-0.4691666666666667],[-0.4066666666666667],[1],[0],[0],[1.5344510998111218],['target'],39,0,39,0,60.882969399914145,,10,60.86740759992972,60.882969399914145,60.882969399914145,0.02453959989361465,62.402279699919745,[-0.4691666666666667],[-0.4066666666666667],[1],[0],[0],[1.5344510998111218],['target'],523662,001,2024-10-11_11h51.19.639,visual search experiement,2024.2.1post4,59.81963183759981,2024-10-11 11h51.35.021398 +0530,
40,0,40,[0.016666666666666666],[0.20666666666666667],[1],[0],[0],[1.8056322000920773],['target'],40,0,40,0,62.43833309994079,,10,62.426362900063396,62.43833309994079,62.43833309994079,0.023899000138044357,64.23231240012683,[0.016666666666666666],[0.20666666666666667],[1],[0],[0],[1.8056322000920773],['target'],523662,001,2024-10-11_11h51.19.639,visual search experiement,2024.2.1post4,59.81963183759981,2024-10-11 11h51.35.021398 +0530,
41,0,41,[0.2683333333333333],[-0.4166666666666667],[1],[0],[0],[1.5954283999744803],['target'],41,0,41,0,64.26650170003995,,10,64.25526300002821,64.26650170003995,64.26650170003995,0.022716499865055084,65.85119690001011,[0.2683333333333333],[-0.4166666666666667],[1],[0],[0],[1.5954283999744803],['target'],523662,001,2024-10-11_11h51.19.639,visual search experiement,2024.2.1post4,59.81963183759981,2024-10-11 11h51.35.021398 +0530,
42,0,42,[-0.24166666666666667],[-0.08416666666666667],[1],[0],[0],[1.1174240000545979],['target'],42,0,42,0,65.89190110005438,,10,65.8742174000945,65.89190110005438,65.89190110005438,0.022784699918702245,66.99191719992086,[-0.24166666666666667],[-0.08416666666666667],[1],[0],[0],[1.1174240000545979],['target'],523662,001,2024-10-11_11h51.19.639,visual search experiement,2024.2.1post4,59.81963183759981,2024-10-11 11h51.35.021398 +0530,
43,0,43,[0.030833333333333334],[-0.3383333333333333],[1],[0],[0],[1.2250787001103163],['target'],43,0,43,0,67.01131190010346,,5,67.00386940012686,67.01131190010346,67.01131190010346,0.011764399940147996,68.22928679990582,[0.030833333333333334],[-0.3383333333333333],[1],[0],[0],[1.2250787001103163],['target'],523662,001,2024-10-11_11h51.19.639,visual search experiement,2024.2.1post4,59.81963183759981,2024-10-11 11h51.35.021398 +0530,
44,0,44,[-0.034166666666666665],[-0.1475],[1],[0],[0],[0.9754011000040919],['target'],44,0,44,0,68.24965430004522,,5,68.24138169991784,68.24965430004522,68.24965430004522,0.011938899988308549,69.2172538000159,[-0.034166666666666665],[-0.1475],[1],[0],[0],[0.9754011000040919],['target'],523662,001,2024-10-11_11h51.19.639,visual search experiement,2024.2.1post4,59.81963183759981,2024-10-11 11h51.35.021398 +0530,
45,0,45,[-0.10166666666666667],[0.4766666666666667],[1],[0],[0],[2.51753760012798],['target'],45,0,45,0,69.25784520013258,,10,69.24035779992118,69.25784520013258,69.25784520013258,0.022879900177940726,71.75823620008305,[-0.10166666666666667],[0.4766666666666667],[1],[0],[0],[2.51753760012798],['target'],523662,001,2024-10-11_11h51.19.639,visual search experiement,2024.2.1post4,59.81963183759981,2024-10-11 11h51.35.021398 +0530,
46,0,46,[0.3933333333333333],[-0.4091666666666667],[1],[0],[0],[1.4091700999997556],['target'],46,0,46,0,71.77919230004773,,5,71.7700420001056,71.77919230004773,71.77919230004773,0.01164679997600615,73.17951930011623,[0.3933333333333333],[-0.4091666666666667],[1],[0],[0],[1.4091700999997556],['target'],523662,001,2024-10-11_11h51.19.639,visual search experiement,2024.2.1post4,59.81963183759981,2024-10-11 11h51.35.021398 +0530,
47,0,47,[-0.19416666666666665],[-0.275],[1],[0],[0],[1.3017489002086222],['target'],47,0,47,0,73.2204660999123,,10,73.20225950004533,73.2204660999123,73.2204660999123,0.022590700071305037,74.50436739996076,[-0.19416666666666665],[-0.275],[1],[0],[0],[1.3017489002086222],['target'],523662,001,2024-10-11_11h51.19.639,visual search experiement,2024.2.1post4,59.81963183759981,2024-10-11 11h51.35.021398 +0530,
48,0,48,[0.1625],[-0.09583333333333334],[1],[0],[0],[1.025010900106281],['target'],48,0,48,0,74.52395740011707,,5,74.51610150001943,74.52395740011707,74.52395740011707,0.011536299949511886,75.54145870008506,[0.1625],[-0.09583333333333334],[1],[0],[0],[1.025010900106281],['target'],523662,001,2024-10-11_11h51.19.639,visual search experiement,2024.2.1post4,59.81963183759981,2024-10-11 11h51.35.021398 +0530,
49,0,49,[-0.28583333333333333],[0.2125],[1],[0],[0],[1.1418212000280619],['target'],49,0,49,0,75.56159380008467,,5,75.55326270009391,75.56159380008467,75.56159380008467,0.011670900043100119,76.69544290006161,[-0.28583333333333333],[0.2125],[1],[0],[0],[1.1418212000280619],['target'],523662,001,2024-10-11_11h51.19.639,visual search experiement,2024.2.1post4,59.81963183759981,2024-10-11 11h51.35.021398 +0530,
50,0,50,[-0.4775],[0.385],[1],[0],[0],[1.4083676999434829],['target'],50,0,50,0,76.71541290008463,,5,76.70714260009117,76.71541290008463,76.71541290008463,0.011540599865838885,78.11584480013698,[-0.4775],[0.385],[1],[0],[0],[1.4083676999434829],['target'],523662,001,2024-10-11_11h51.19.639,visual search experiement,2024.2.1post4,59.81963183759981,2024-10-11 11h51.35.021398 +0530,
51,0,51,[-0.42833333333333334],[0.30583333333333335],[1],[0],[0],[0.8410225000698119],['target'],51,0,51,0,78.13516240008175,,5,78.12757420004345,78.13516240008175,78.13516240008175,0.011602799873799086,78.96895790006965,[-0.42833333333333334],[0.30583333333333335],[1],[0],[0],[0.8410225000698119],['target'],523662,001,2024-10-11_11h51.19.639,visual search experiement,2024.2.1post4,59.81963183759981,2024-10-11 11h51.35.021398 +0530,
52,0,52,[-0.42833333333333334],[0.30583333333333335],[0],[0],[1],[0.5087510000448674],[None],52,0,52,0,78.98967089992948,,5,78.98154180007987,78.98967089992948,78.98967089992948,0.012454899959266186,79.49061849992722,[-0.42833333333333334],[0.30583333333333335],[0],[0],[1],[0.5087510000448674],[None],523662,001,2024-10-11_11h51.19.639,visual search experiement,2024.2.1post4,59.81963183759981,2024-10-11 11h51.35.021398 +0530,
53,0,53,[-0.42833333333333334],[0.30583333333333335],[0],[0],[1],[0.22595760016702116],[None],53,0,53,0,79.51158250006847,,5,79.5032452000305,79.51158250006847,79.51158250006847,0.01248829998075962,79.72954669990577,[-0.42833333333333334],[0.30583333333333335],[0],[0],[1],[0.22595760016702116],[None],523662,001,2024-10-11_11h51.19.639,visual search experiement,2024.2.1post4,59.81963183759981,2024-10-11 11h51.35.021398 +0530,
54,0,54,[-0.42833333333333334],[0.30583333333333335],[0],[0],[1],[0.18331479979678988],[None],54,0,54,0,79.76960920006968,,10,79.75397640001029,79.76960920006968,79.76960920006968,0.024287999840453267,79.93761279992759,[-0.42833333333333334],[0.30583333333333335],[0],[0],[1],[0.18331479979678988],[None],523662,001,2024-10-11_11h51.19.639,visual search experiement,2024.2.1post4,59.81963183759981,2024-10-11 11h51.35.021398 +0530,
55,0,55,[-0.42833333333333334],[0.30583333333333335],[0],[0],[1],[0.2342306999489665],[None],55,0,55,0,79.97839500010014,,10,79.9610309000127,79.97839500010014,79.97839500010014,0.023268500110134482,80.19561109994538,[-0.42833333333333334],[0.30583333333333335],[0],[0],[1],[0.2342306999489665],[None],523662,001,2024-10-11_11h51.19.639,visual search experiement,2024.2.1post4,59.81963183759981,2024-10-11 11h51.35.021398 +0530,
56,0,56,[0.30416666666666664],[0.015],[1],[0],[0],[1.7844693001825362],['target'],56,0,56,0,80.2366430000402,,10,80.21859030006453,80.2366430000402,80.2366430000402,0.02280520019121468,82.00341200013645,[0.30416666666666664],[0.015],[1],[0],[0],[1.7844693001825362],['target'],523662,001,2024-10-11_11h51.19.639,visual search experiement,2024.2.1post4,59.81963183759981,2024-10-11 11h51.35.021398 +0530,
57,0,57,[-0.5],[0.05416666666666667],[1],[0],[0],[1.525486300000921],['target'],57,0,57,0,82.0251297999639,,5,82.01644150004722,82.0251297999639,82.0251297999639,0.012839400209486485,83.54226769995876,[-0.5],[0.05416666666666667],[1],[0],[0],[1.525486300000921],['target'],523662,001,2024-10-11_11h51.19.639,visual search experiement,2024.2.1post4,59.81963183759981,2024-10-11 11h51.35.021398 +0530,
58,0,58,[0.06166666666666667],[-0.04666666666666667],[1],[0],[0],[1.1096722001675516],['target'],58,0,58,0,83.56244429992512,,5,83.55383430002257,83.56244429992512,83.56244429992512,0.011459700064733624,84.66386530012824,[0.06166666666666667],[-0.04666666666666667],[1],[0],[0],[1.1096722001675516],['target'],523662,001,2024-10-11_11h51.19.639,visual search experiement,2024.2.1post4,59.81963183759981,2024-10-11 11h51.35.021398 +0530,
59,0,59,[0.13583333333333333],[0.11833333333333333],[1],[0],[0],[1.1999355999287218],['target'],59,0,59,0,84.70399269997142,,10,84.68751700012945,84.70399269997142,84.70399269997142,0.023525199852883816,85.88788009993732,[0.13583333333333333],[0.11833333333333333],[1],[0],[0],[1.1999355999287218],['target'],523662,001,2024-10-11_11h51.19.639,visual search experiement,2024.2.1post4,59.81963183759981,2024-10-11 11h51.35.021398 +0530,
60,0,60,[-0.3983333333333333],[0.3275],[1],[0],[0],[1.5839471998624504],['target'],60,0,60,0,85.92826620000415,,10,85.91100309998728,85.92826620000415,85.92826620000415,0.022958899848163128,87.49541550013237,[-0.3983333333333333],[0.3275],[1],[0],[0],[1.5839471998624504],['target'],523662,001,2024-10-11_11h51.19.639,visual search experiement,2024.2.1post4,59.81963183759981,2024-10-11 11h51.35.021398 +0530,
61,0,61,[-0.013333333333333334],[0.2833333333333333],[1],[0],[0],[1.167335799895227],['target'],61,0,61,0,87.53650870011188,,10,87.51843699999154,87.53650870011188,87.53650870011188,0.022790799848735332,88.68608770007268,[-0.013333333333333334],[0.2833333333333333],[1],[0],[0],[1.167335799895227],['target'],523662,001,2024-10-11_11h51.19.639,visual search experiement,2024.2.1post4,59.81963183759981,2024-10-11 11h51.35.021398 +0530,
62,0,62,[-0.17916666666666667],[-0.3591666666666667],[1],[0],[0],[1.0750951000954956],['target'],62,0,62,0,88.70621150010265,,5,88.69795090006664,88.70621150010265,88.70621150010265,0.011696100002154708,89.77342050010338,[-0.17916666666666667],[-0.3591666666666667],[1],[0],[0],[1.0750951000954956],['target'],523662,001,2024-10-11_11h51.19.639,visual search experiement,2024.2.1post4,59.81963183759981,2024-10-11 11h51.35.021398 +0530,
63,0,63,[0.17833333333333334],[-0.28],[1],[0],[0],[1.1086144000291824],['target'],63,0,63,0,89.7939544999972,,5,89.78505890001543,89.7939544999972,89.7939544999972,0.011507099959999323,90.89402300002985,[0.17833333333333334],[-0.28],[1],[0],[0],[1.1086144000291824],['target'],523662,001,2024-10-11_11h51.19.639,visual search experiement,2024.2.1post4,59.81963183759981,2024-10-11 11h51.35.021398 +0530,
64,0,64,[0.3383333333333333],[0.4091666666666667],[1],[0],[0],[1.6917268000543118],['target'],64,0,64,0,90.91496470011771,,5,90.90600479999557,90.91496470011771,90.91496470011771,0.011810499941930175,92.59807930001989,[0.3383333333333333],[0.4091666666666667],[1],[0],[0],[1.6917268000543118],['target'],523662,001,2024-10-11_11h51.19.639,visual search experiement,2024.2.1post4,59.81963183759981,2024-10-11 11h51.35.021398 +0530,
65,0,65,[0.32416666666666666],[-0.0725],[1],[0],[0],[1.6840904999990016],['target'],65,0,65,0,92.63896899996325,,10,92.62146600009874,92.63896899996325,92.63896899996325,0.023266700096428394,94.30606229999103,[0.32416666666666666],[-0.0725],[1],[0],[0],[1.6840904999990016],['target'],523662,001,2024-10-11_11h51.19.639,visual search experiement,2024.2.1post4,59.81963183759981,2024-10-11 11h51.35.021398 +0530,
66,0,66,[-0.12166666666666667],[-0.26],[1],[0],[0],[1.6775229000486434],['target'],66,0,66,0,94.32984700007364,,5,94.32115829992108,94.32984700007364,94.32984700007364,0.01489650015719235,95.99915930000134,[-0.12166666666666667],[-0.26],[1],[0],[0],[1.6775229000486434],['target'],523662,001,2024-10-11_11h51.19.639,visual search experiement,2024.2.1post4,59.81963183759981,2024-10-11 11h51.35.021398 +0530,
67,0,67,[0.075],[-0.3616666666666667],[1],[0],[0],[1.6471661000978202],['target'],67,0,67,0,96.03609760012478,,10,96.02291109994985,96.03609760012478,96.03609760012478,0.023592399898916483,97.6705159000121,[0.075],[-0.3616666666666667],[1],[0],[0],[1.6471661000978202],['target'],523662,001,2024-10-11_11h51.19.639,visual search experiement,2024.2.1post4,59.81963183759981,2024-10-11 11h51.35.021398 +0530,
68,0,68,[-0.4166666666666667],[-0.1625],[1],[0],[0],[1.1261507000308484],['target'],68,0,68,0,97.69181749993004,,5,97.68233980005607,97.69181749993004,97.69181749993004,0.01165880006738007,98.80882130004466,[-0.4166666666666667],[-0.1625],[1],[0],[0],[1.1261507000308484],['target'],523662,001,2024-10-11_11h51.19.639,visual search experiement,2024.2.1post4,59.81963183759981,2024-10-11 11h51.35.021398 +0530,
69,0,69,[0.4766666666666667],[-0.20916666666666667],[1],[0],[0],[1.2585634000133723],['target'],69,0,69,0,98.82910550013185,,5,98.82040289998986,98.82910550013185,98.82910550013185,0.011447699973359704,100.0794422000181,[0.4766666666666667],[-0.20916666666666667],[1],[0],[0],[1.2585634000133723],['target'],523662,001,2024-10-11_11h51.19.639,visual search experiement,2024.2.1post4,59.81963183759981,2024-10-11 11h51.35.021398 +0530,
70,0,70,[0.37083333333333335],[0.21833333333333332],[1],[0],[0],[1.5750637999735773],['target'],70,0,70,0,100.09989459998906,,5,100.0913184999954,100.09989459998906,100.09989459998906,0.011729200137779117,101.6667301999405,[0.37083333333333335],[0.21833333333333332],[1],[0],[0],[1.5750637999735773],['target'],523662,001,2024-10-11_11h51.19.639,visual search experiement,2024.2.1post4,59.81963183759981,2024-10-11 11h51.35.021398 +0530,
71,0,71,[-0.060833333333333336],[-0.37583333333333335],[1],[0],[0],[1.151441700058058],['target'],71,0,71,0,101.7075954999309,,10,101.68984279991128,101.7075954999309,101.7075954999309,0.02298740018159151,102.84175390005112,[-0.060833333333333336],[-0.37583333333333335],[1],[0],[0],[1.151441700058058],['target'],523662,001,2024-10-11_11h51.19.639,visual search experiement,2024.2.1post4,59.81963183759981,2024-10-11 11h51.35.021398 +0530,
72,0,72,[0.4175],[-0.375],[1],[0],[0],[1.6163757001049817],['target'],72,0,72,0,102.88220590003766,,10,102.86564350011759,102.88220590003766,102.88220590003766,0.023733400041237473,104.48236820008606,[0.4175],[-0.375],[1],[0],[0],[1.6163757001049817],['target'],523662,001,2024-10-11_11h51.19.639,visual search experiement,2024.2.1post4,59.81963183759981,2024-10-11 11h51.35.021398 +0530,
73,0,73,[-0.44],[0.26416666666666666],[1],[0],[0],[1.5759709998965263],['target'],73,0,73,0,104.50310530001298,,5,104.49515120009892,104.50310530001298,104.50310530001298,0.012632499914616346,106.07160419994034,[-0.44],[0.26416666666666666],[1],[0],[0],[1.5759709998965263],['target'],523662,001,2024-10-11_11h51.19.639,visual search experiement,2024.2.1post4,59.81963183759981,2024-10-11 11h51.35.021398 +0530,
74,0,74,[-0.43],[-0.4825],[1],[0],[0],[2.225057599833235],['target'],74,0,74,0,106.09162899991497,,5,106.0831249000039,106.09162899991497,106.09162899991497,0.011384099954739213,108.30866850004531,[-0.43],[-0.4825],[1],[0],[0],[2.225057599833235],['target'],523662,001,2024-10-11_11h51.19.639,visual search experiement,2024.2.1post4,59.81963183759981,2024-10-11 11h51.35.021398 +0530,
75,0,75,[0.20416666666666666],[0.415],[1],[0],[0],[1.7669732999056578],['target'],75,0,75,0,108.34950420004316,,10,108.33228339999914,108.34950420004316,108.34950420004316,0.023453000001609325,110.09960100008175,[0.20416666666666666],[0.415],[1],[0],[0],[1.7669732999056578],['target'],523662,001,2024-10-11_11h51.19.639,visual search experiement,2024.2.1post4,59.81963183759981,2024-10-11 11h51.35.021398 +0530,
76,0,76,[0.16416666666666666],[-0.025],[1],[0],[0],[1.4681104999035597],['target'],76,0,76,0,110.14002300007269,,10,110.12238939991221,110.14002300007269,110.14002300007269,0.022611899999901652,111.59098510001786,[0.16416666666666666],[-0.025],[1],[0],[0],[1.4681104999035597],['target'],523662,001,2024-10-11_11h51.19.639,visual search experiement,2024.2.1post4,59.81963183759981,2024-10-11 11h51.35.021398 +0530,
77,0,77,[-0.18416666666666667],[-0.105],[1],[0],[0],[1.109681900124997],['target'],77,0,77,0,111.61134100006893,,5,111.60284950002097,111.61134100006893,111.61134100006893,0.011701400158926845,112.71308790007606,[-0.18416666666666667],[-0.105],[1],[0],[0],[1.109681900124997],['target'],523662,001,2024-10-11_11h51.19.639,visual search experiement,2024.2.1post4,59.81963183759981,2024-10-11 11h51.35.021398 +0530,
78,0,78,[-0.16333333333333333],[-0.105],[1],[0],[0],[0.7835087000858039],['target'],78,0,78,0,112.75268030003645,,10,112.73622740013525,112.75268030003645,112.75268030003645,0.022958700079470873,113.52017210004851,[-0.16333333333333333],[-0.105],[1],[0],[0],[0.7835087000858039],['target'],523662,001,2024-10-11_11h51.19.639,visual search experiement,2024.2.1post4,59.81963183759981,2024-10-11 11h51.35.021398 +0530,
79,0,79,[-0.059166666666666666],[-0.15833333333333333],[1],[0],[0],[0.9333673999644816],['target'],79,0,79,0,113.56087980000302,,10,113.54354560002685,113.56087980000302,113.56087980000302,0.02322129998356104,114.47725929995067,[-0.059166666666666666],[-0.15833333333333333],[1],[0],[0],[0.9333673999644816],['target'],523662,001,2024-10-11_11h51.19.639,visual search experiement,2024.2.1post4,59.81963183759981,2024-10-11 11h51.35.021398 +0530,
80,0,80,[-0.43583333333333335],[-0.36083333333333334],[1],[0],[0],[1.1025273001287133],['target'],80,0,80,0,114.51870630006306,,10,114.5001312000677,114.51870630006306,114.51870630006306,0.022724299924448133,115.60312970005907,[-0.43583333333333335],[-0.36083333333333334],[1],[0],[0],[1.1025273001287133],['target'],523662,001,2024-10-11_11h51.19.639,visual search experiement,2024.2.1post4,59.81963183759981,2024-10-11 11h51.35.021398 +0530,
81,0,81,[-0.08083333333333333],[-0.10083333333333333],[1],[0],[0],[1.0923369000665843],['target'],81,0,81,0,115.62330879992805,,5,115.61474839993753,115.62330879992805,115.62330879992805,0.011426900047808886,116.70743680000305,[-0.08083333333333333],[-0.10083333333333333],[1],[0],[0],[1.0923369000665843],['target'],523662,001,2024-10-11_11h51.19.639,visual search experiement,2024.2.1post4,59.81963183759981,2024-10-11 11h51.35.021398 +0530,
82,0,82,[0.043333333333333335],[0.37833333333333335],[1],[0],[0],[1.824295099824667],['target'],82,0,82,0,116.72736099991016,,5,116.71973020001315,116.72736099991016,116.72736099991016,0.012126700021326542,118.54436130006798,[0.043333333333333335],[0.37833333333333335],[1],[0],[0],[1.824295099824667],['target'],523662,001,2024-10-11_11h51.19.639,visual search experiement,2024.2.1post4,59.81963183759981,2024-10-11 11h51.35.021398 +0530,
83,0,83,[0.15],[-0.08416666666666667],[1],[0],[0],[1.1848377999849617],['target'],83,0,83,0,118.58586700004525,,10,118.56703620008193,118.58586700004525,118.58586700004525,0.022546800086274743,119.75222070002928,[0.15],[-0.08416666666666667],[1],[0],[0],[1.1848377999849617],['target'],523662,001,2024-10-11_11h51.19.639,visual search experiement,2024.2.1post4,59.81963183759981,2024-10-11 11h51.35.021398 +0530,
84,0,84,[0.3625],[-0.24416666666666667],[1],[0],[0],[1.392091300105676],['target'],84,0,84,0,119.77237710007466,,5,119.76404149993323,119.77237710007466,119.77237710007466,0.011612400179728866,121.15650629997253,[0.3625],[-0.24416666666666667],[1],[0],[0],[1.392091300105676],['target'],523662,001,2024-10-11_11h51.19.639,visual search experiement,2024.2.1post4,59.81963183759981,2024-10-11 11h51.35.021398 +0530,
85,0,85,[-0.2808333333333333],[0.475],[1],[0],[0],[1.8420653999783099],['target'],85,0,85,0,121.17698110011406,,5,121.16826459998265,121.17698110011406,121.17698110011406,0.011624899925664067,123.01079430012032,[-0.2808333333333333],[0.475],[1],[0],[0],[1.8420653999783099],['target'],523662,001,2024-10-11_11h51.19.639,visual search experiement,2024.2.1post4,59.81963183759981,2024-10-11 11h51.35.021398 +0530,
86,0,86,[0.17666666666666667],[0.3383333333333333],[1],[0],[0],[1.4257183999288827],['target'],86,0,86,0,123.03129620011896,,5,123.02253159997053,123.03129620011896,123.03129620011896,0.011595800053328276,124.44858959992416,[0.17666666666666667],[0.3383333333333333],[1],[0],[0],[1.4257183999288827],['target'],523662,001,2024-10-11_11h51.19.639,visual search experiement,2024.2.1post4,59.81963183759981,2024-10-11 11h51.35.021398 +0530,
87,0,87,[-0.3566666666666667],[0.37583333333333335],[1],[0],[0],[1.5331334001384676],['target'],87,0,87,0,124.4884232999757,,10,124.47280999994837,124.4884232999757,124.4884232999757,0.02405550004914403,126.00630329991691,[-0.3566666666666667],[0.37583333333333335],[1],[0],[0],[1.5331334001384676],['target'],523662,001,2024-10-11_11h51.19.639,visual search experiement,2024.2.1post4,59.81963183759981,2024-10-11 11h51.35.021398 +0530,
88,0,88,[-0.38],[-0.25666666666666665],[1],[0],[0],[1.9343093999195844],['target'],88,0,88,0,126.04662050004117,,10,126.02970890002325,126.04662050004117,126.04662050004117,0.023223200114443898,127.96448850003071,[-0.38],[-0.25666666666666665],[1],[0],[0],[1.9343093999195844],['target'],523662,001,2024-10-11_11h51.19.639,visual search experiement,2024.2.1post4,59.81963183759981,2024-10-11 11h51.35.021398 +0530,
89,0,89,[0.21666666666666667],[-0.4658333333333333],[1],[0],[0],[1.6091577000916004],['target'],89,0,89,0,127.98446239996701,,5,127.97617859998718,127.98446239996701,127.98446239996701,0.011494699865579605,129.58581009996124,[0.21666666666666667],[-0.4658333333333333],[1],[0],[0],[1.6091577000916004],['target'],523662,001,2024-10-11_11h51.19.639,visual search experiement,2024.2.1post4,59.81963183759981,2024-10-11 11h51.35.021398 +0530,
90,0,90,[0.425],[0.32166666666666666],[1],[0],[0],[1.8661554001737386],['target'],90,0,90,0,129.62553590000607,,10,129.6084340000525,129.62553590000607,129.62553590000607,0.02245820011012256,131.47494380013086,[0.425],[0.32166666666666666],[1],[0],[0],[1.8661554001737386],['target'],523662,001,2024-10-11_11h51.19.639,visual search experiement,2024.2.1post4,59.81963183759981,2024-10-11 11h51.35.021398 +0530,
91,0,91,[-0.2925],[-0.18666666666666668],[1],[0],[0],[1.4597175000235438],['target'],91,0,91,0,131.4951506999787,,5,131.48679740005173,131.4951506999787,131.4951506999787,0.011627200059592724,132.94699200009927,[-0.2925],[-0.18666666666666668],[1],[0],[0],[1.4597175000235438],['target'],523662,001,2024-10-11_11h51.19.639,visual search experiement,2024.2.1post4,59.81963183759981,2024-10-11 11h51.35.021398 +0530,
92,0,92,[-0.3641666666666667],[-0.30416666666666664],[1],[0],[0],[1.2660626999568194],['target'],92,0,92,0,132.98655729996972,,10,132.96980489999987,132.98655729996972,132.98655729996972,0.022677200147882104,134.23618520004675,[-0.3641666666666667],[-0.30416666666666664],[1],[0],[0],[1.2660626999568194],['target'],523662,001,2024-10-11_11h51.19.639,visual search experiement,2024.2.1post4,59.81963183759981,2024-10-11 11h51.35.021398 +0530,
93,0,93,[0.029166666666666667],[-0.39416666666666667],[1],[0],[0],[1.2193067001644522],['target'],93,0,93,0,134.2778579001315,,10,134.2592263999395,134.2778579001315,134.2778579001315,0.022874000016599894,135.4789702000562,[0.029166666666666667],[-0.39416666666666667],[1],[0],[0],[1.2193067001644522],['target'],523662,001,2024-10-11_11h51.19.639,visual search experiement,2024.2.1post4,59.81963183759981,2024-10-11 11h51.35.021398 +0530,
94,0,94,[-0.3625],[0.43666666666666665],[1],[0],[0],[2.9992778000887483],['target'],94,0,94,0,135.5184432999231,,10,135.501508400077,135.5184432999231,135.5184432999231,0.022374399937689304,138.50112850009464,[-0.3625],[0.43666666666666665],[1],[0],[0],[2.9992778000887483],['target'],523662,001,2024-10-11_11h51.19.639,visual search experiement,2024.2.1post4,59.81963183759981,2024-10-11 11h51.35.021398 +0530,
95,0,95,[0.275],[-0.45],[1],[0],[0],[2.1665781000629067],['target'],95,0,95,0,138.54213770013303,,10,138.52480040001683,138.54213770013303,138.54213770013303,0.023495200090110302,140.69173879991286,[0.275],[-0.45],[1],[0],[0],[2.1665781000629067],['target'],523662,001,2024-10-11_11h51.19.639,visual search experiement,2024.2.1post4,59.81963183759981,2024-10-11 11h51.35.021398 +0530,
96,0,96,[0.14833333333333334],[0.25083333333333335],[1],[0],[0],[1.70055319997482],['target'],96,0,96,0,140.73225410003215,,10,140.716424100101,140.73225410003215,140.73225410003215,0.02447750000283122,142.4174007999245,[0.14833333333333334],[0.25083333333333335],[1],[0],[0],[1.70055319997482],['target'],523662,001,2024-10-11_11h51.19.639,visual search experiement,2024.2.1post4,59.81963183759981,2024-10-11 11h51.35.021398 +0530,
97,0,97,[0.4266666666666667],[-0.08416666666666667],[1],[0],[0],[1.5008337998297065],['target'],97,0,97,0,142.4577514999546,,10,142.44014400010929,142.4577514999546,142.4577514999546,0.022588300053030252,143.9414077999536,[0.4266666666666667],[-0.08416666666666667],[1],[0],[0],[1.5008337998297065],['target'],523662,001,2024-10-11_11h51.19.639,visual search experiement,2024.2.1post4,59.81963183759981,2024-10-11 11h51.35.021398 +0530,
98,0,98,[-0.41583333333333333],[-0.36916666666666664],[1],[0],[0],[1.4170611000154167],['target'],98,0,98,0,143.9813413999509,,10,143.96403530007228,143.9813413999509,143.9813413999509,0.022459100000560284,145.38144110003486,[-0.41583333333333333],[-0.36916666666666664],[1],[0],[0],[1.4170611000154167],['target'],523662,001,2024-10-11_11h51.19.639,visual search experiement,2024.2.1post4,59.81963183759981,2024-10-11 11h51.35.021398 +0530,
99,0,99,[0.09083333333333334],[0.125],[1],[0],[0],[1.2912967999000102],['target'],99,0,99,0,145.40079950005747,,5,145.39309339993633,145.40079950005747,145.40079950005747,0.011478699976578355,146.68472980009392,[0.09083333333333334],[0.125],[1],[0],[0],[1.2912967999000102],['target'],523662,001,2024-10-11_11h51.19.639,visual search experiement,2024.2.1post4,59.81963183759981,2024-10-11 11h51.35.021398 +0530,
100,0,100,[0.42],[-0.10083333333333333],[1],[0],[0],[1.5950404999312013],['target'],100,0,100,0,146.72586150001734,,10,146.7070591999218,146.72586150001734,146.72586150001734,0.022199500119313598,148.30246459995396,[0.42],[-0.10083333333333333],[1],[0],[0],[1.5950404999312013],['target'],523662,001,2024-10-11_11h51.19.639,visual search experiement,2024.2.1post4,59.81963183759981,2024-10-11 11h51.35.021398 +0530,
101,0,101,[0.48333333333333334],[0.08666666666666667],[1],[0],[0],[1.1397933999542147],['target'],101,0,101,0,148.34022759995423,,10,148.32792489998974,148.34022759995423,148.34022759995423,0.02528649987652898,149.46803290001117,[0.48333333333333334],[0.08666666666666667],[1],[0],[0],[1.1397933999542147],['target'],523662,001,2024-10-11_11h51.19.639,visual search experiement,2024.2.1post4,59.81963183759981,2024-10-11 11h51.35.021398 +0530,
102,0,102,[0.44666666666666666],[-0.10583333333333333],[1],[0],[0],[1.11496949987486],['target'],102,0,102,0,149.58180860010907,,10,149.5691440999508,149.58180860010907,149.58180860010907,0.10093059996142983,150.68453590013087,[0.44666666666666666],[-0.10583333333333333],[1],[0],[0],[1.11496949987486],['target'],523662,001,2024-10-11_11h51.19.639,visual search experiement,2024.2.1post4,59.81963183759981,2024-10-11 11h51.35.021398 +0530,
103,0,103,[-0.285],[0.4583333333333333],[1],[0],[0],[2.0789055000059307],['target'],103,0,103,0,150.7199629000388,,10,150.70750869996846,150.7199629000388,150.7199629000388,0.02282000007107854,152.78673800011165,[-0.285],[0.4583333333333333],[1],[0],[0],[2.0789055000059307],['target'],523662,001,2024-10-11_11h51.19.639,visual search experiement,2024.2.1post4,59.81963183759981,2024-10-11 11h51.35.021398 +0530,
104,0,104,[-0.2966666666666667],[-0.37333333333333335],[1],[0],[0],[1.3251469999086112],['target'],104,0,104,0,152.80682309996337,,5,152.79838769999333,152.80682309996337,152.80682309996337,0.011494900099933147,154.1238359999843,[-0.2966666666666667],[-0.37333333333333335],[1],[0],[0],[1.3251469999086112],['target'],523662,001,2024-10-11_11h51.19.639,visual search experiement,2024.2.1post4,59.81963183759981,2024-10-11 11h51.35.021398 +0530,
105,0,105,[0.4066666666666667],[0.3441666666666667],[1],[0],[0],[1.5916062998585403],['target'],105,0,105,0,154.14439640007913,,5,154.1355783001054,154.14439640007913,154.14439640007913,0.011627200059592724,155.72749660001136,[0.4066666666666667],[0.3441666666666667],[1],[0],[0],[1.5916062998585403],['target'],523662,001,2024-10-11_11h51.19.639,visual search experiement,2024.2.1post4,59.81963183759981,2024-10-11 11h51.35.021398 +0530,
106,0,106,[0.23416666666666666],[-0.12333333333333334],[1],[0],[0],[1.159055900061503],['target'],106,0,106,0,155.74772779992782,,5,155.73920870013535,155.74772779992782,155.74772779992782,0.011569199850782752,156.8987477000337,[0.23416666666666666],[-0.12333333333333334],[1],[0],[0],[1.159055900061503],['target'],523662,001,2024-10-11_11h51.19.639,visual search experiement,2024.2.1post4,59.81963183759981,2024-10-11 11h51.35.021398 +0530,
107,0,107,[-0.07916666666666666],[0.16333333333333333],[1],[0],[0],[1.36705550015904],['target'],107,0,107,0,156.93917719996534,,10,156.92221310012974,156.93917719996534,156.93917719996534,0.023301600012928247,158.2897016000934,[-0.07916666666666666],[0.16333333333333333],[1],[0],[0],[1.36705550015904],['target'],523662,001,2024-10-11_11h51.19.639,visual search experiement,2024.2.1post4,59.81963183759981,2024-10-11 11h51.35.021398 +0530,
108,0,108,[0.1525],[-0.42333333333333334],[1],[0],[0],[2.4509646999649704],['target'],108,0,108,0,158.3305532000959,,10,158.31266260007396,158.3305532000959,158.3305532000959,0.022790499962866306,160.76407849998213,[0.1525],[-0.42333333333333334],[1],[0],[0],[2.4509646999649704],['target'],523662,001,2024-10-11_11h51.19.639,visual search experiement,2024.2.1post4,59.81963183759981,2024-10-11 11h51.35.021398 +0530,
109,0,109,[0.29],[-0.43916666666666665],[1],[0],[0],[1.0174044999293983],['target'],109,0,109,0,160.80405590008013,,10,160.78733390010893,160.80405590008013,160.80405590008013,0.023091399809345603,161.80515570007265,[0.29],[-0.43916666666666665],[1],[0],[0],[1.0174044999293983],['target'],523662,001,2024-10-11_11h51.19.639,visual search experiement,2024.2.1post4,59.81963183759981,2024-10-11 11h51.35.021398 +0530,
110,0,110,[0.035833333333333335],[-0.2841666666666667],[1],[0],[0],[1.0925108999945223],['target'],110,0,110,0,161.82589800003916,,5,161.81700549996458,161.82589800003916,161.82589800003916,0.011687800055369735,162.90999180008657,[0.035833333333333335],[-0.2841666666666667],[1],[0],[0],[1.0925108999945223],['target'],523662,001,2024-10-11_11h51.19.639,visual search experiement,2024.2.1post4,59.81963183759981,2024-10-11 11h51.35.021398 +0530,
111,0,111,[0.11916666666666667],[-0.36833333333333335],[1],[0],[0],[1.04178599989973],['target'],111,0,111,0,162.93039090000093,,5,162.92216930002905,162.93039090000093,162.93039090000093,0.011962200049310923,163.9644333999604,[0.11916666666666667],[-0.36833333333333335],[1],[0],[0],[1.04178599989973],['target'],523662,001,2024-10-11_11h51.19.639,visual search experiement,2024.2.1post4,59.81963183759981,2024-10-11 11h51.35.021398 +0530,
112,0,112,[0.2125],[-0.445],[1],[0],[0],[1.2192238001152873],['target'],112,0,112,0,164.0045743000228,,10,163.98724459996447,164.0045743000228,164.0045743000228,0.02266079979017377,165.20692140003666,[0.2125],[-0.445],[1],[0],[0],[1.2192238001152873],['target'],523662,001,2024-10-11_11h51.19.639,visual search experiement,2024.2.1post4,59.81963183759981,2024-10-11 11h51.35.021398 +0530,
113,0,113,[-0.175],[-0.25833333333333336],[1],[0],[0],[1.358715500216931],['target'],113,0,113,0,165.2286243000999,,5,165.2198069000151,165.2286243000999,165.2286243000999,0.012725400039926171,166.57893680012785,[-0.175],[-0.25833333333333336],[1],[0],[0],[1.358715500216931],['target'],523662,001,2024-10-11_11h51.19.639,visual search experiement,2024.2.1post4,59.81963183759981,2024-10-11 11h51.35.021398 +0530,
114,0,114,[-0.2875],[-0.29333333333333333],[1],[0],[0],[1.167108500143513],['target'],114,0,114,0,166.61950509995222,,10,166.60327200009488,166.61950509995222,166.61950509995222,0.024196599842980504,167.77074810001068,[-0.2875],[-0.29333333333333333],[1],[0],[0],[1.167108500143513],['target'],523662,001,2024-10-11_11h51.19.639,visual search experiement,2024.2.1post4,59.81963183759981,2024-10-11 11h51.35.021398 +0530,
115,0,115,[-0.020833333333333332],[-0.050833333333333335],[1],[0],[0],[4.800423099892214],['target'],115,0,115,0,167.81151130003855,,10,167.79338550008833,167.81151130003855,167.81151130003855,0.022507899906486273,172.5942726000212,[-0.020833333333333332],[-0.050833333333333335],[1],[0],[0],[4.800423099892214],['target'],523662,001,2024-10-11_11h51.19.639,visual search experiement,2024.2.1post4,59.81963183759981,2024-10-11 11h51.35.021398 +0530,
116,0,116,[0.2225],[0.44583333333333336],[1],[0],[0],[2.233330100076273],['target'],116,0,116,0,172.6341512000654,,10,172.61733929999173,172.6341512000654,172.6341512000654,0.022910899948328733,174.85108479997143,[0.2225],[0.44583333333333336],[1],[0],[0],[2.233330100076273],['target'],523662,001,2024-10-11_11h51.19.639,visual search experiement,2024.2.1post4,59.81963183759981,2024-10-11 11h51.35.021398 +0530,
117,0,117,[-0.38916666666666666],[-0.135],[1],[0],[0],[2.917743599973619],['target'],117,0,117,0,174.89175479998812,,10,174.87403180007823,174.89175479998812,174.89175479998812,0.022789400070905685,177.79222430009395,[-0.38916666666666666],[-0.135],[1],[0],[0],[2.917743599973619],['target'],523662,001,2024-10-11_11h51.19.639,visual search experiement,2024.2.1post4,59.81963183759981,2024-10-11 11h51.35.021398 +0530,
118,0,118,[0.023333333333333334],[-0.2325],[1],[0],[0],[1.2007697999943048],['target'],118,0,118,0,177.83242830005474,,10,177.81540540000424,177.83242830005474,177.83242830005474,0.02302720001898706,179.01660490012728,[0.023333333333333334],[-0.2325],[1],[0],[0],[1.2007697999943048],['target'],523662,001,2024-10-11_11h51.19.639,visual search experiement,2024.2.1post4,59.81963183759981,2024-10-11 11h51.35.021398 +0530,
119,0,119,[0.14166666666666666],[-0.09],[1],[0],[0],[1.301238400163129],['target'],119,0,119,0,179.0571912000887,,10,179.03935940004885,179.0571912000887,179.0571912000887,0.022600100142881274,180.3410726999864,[0.14166666666666666],[-0.09],[1],[0],[0],[1.301238400163129],['target'],523662,001,2024-10-11_11h51.19.639,visual search experiement,2024.2.1post4,59.81963183759981,2024-10-11 11h51.35.021398 +0530,
120,0,120,[-0.10083333333333333],[-0.1325],[1],[0],[0],[1.1584671000018716],['target'],120,0,120,0,180.3614384001121,,5,180.3527421001345,180.3614384001121,180.3614384001121,0.011512299999594688,181.51154970005155,[-0.10083333333333333],[-0.1325],[1],[0],[0],[1.1584671000018716],['target'],523662,001,2024-10-11_11h51.19.639,visual search experiement,2024.2.1post4,59.81963183759981,2024-10-11 11h51.35.021398 +0530,
121,0,121,[0.10916666666666666],[-0.37666666666666665],[1],[0],[0],[1.1684004999697208],['target'],121,0,121,0,181.55282040010206,,10,181.53471209993586,181.55282040010206,181.55282040010206,0.023004099959507585,182.70360299991444,[0.10916666666666666],[-0.37666666666666665],[1],[0],[0],[1.1684004999697208],['target'],523662,001,2024-10-11_11h51.19.639,visual search experiement,2024.2.1post4,59.81963183759981,2024-10-11 11h51.35.021398 +0530,
122,0,122,[-0.45916666666666667],[0.13583333333333333],[1],[0],[0],[1.658430099952966],['target'],122,0,122,0,182.72317799995653,,5,182.7152029001154,182.72317799995653,182.72317799995653,0.01144339982420206,184.3739044999238,[-0.45916666666666667],[0.13583333333333333],[1],[0],[0],[1.658430099952966],['target'],523662,001,2024-10-11_11h51.19.639,visual search experiement,2024.2.1post4,59.81963183759981,2024-10-11 11h51.35.021398 +0530,
123,0,123,[-0.45916666666666667],[0.13583333333333333],[0],[0],[1],[0.4093243998941034],[None],123,0,123,0,184.3955518999137,,5,184.38757529994473,184.3955518999137,184.3955518999137,0.013550300151109695,184.7972290001344,[-0.45916666666666667],[0.13583333333333333],[0],[0],[1],[0.4093243998941034],[None],523662,001,2024-10-11_11h51.19.639,visual search experiement,2024.2.1post4,59.81963183759981,2024-10-11 11h51.35.021398 +0530,
124,0,124,[-0.45916666666666667],[0.13583333333333333],[0],[0],[1],[0.2831595002207905],[None],124,0,124,0,184.8369261000771,,10,184.82126510003582,184.8369261000771,184.8369261000771,0.023911699885502458,185.10477560013533,[-0.45916666666666667],[0.13583333333333333],[0],[0],[1],[0.2831595002207905],[None],523662,001,2024-10-11_11h51.19.639,visual search experiement,2024.2.1post4,59.81963183759981,2024-10-11 11h51.35.021398 +0530,
125,0,125,[-0.45916666666666667],[0.13583333333333333],[0],[0],[1],[0.21782809984870255],[None],125,0,125,0,185.14523699996062,,10,185.1290019999724,185.14523699996062,185.14523699996062,0.024077599868178368,185.3473229999654,[-0.45916666666666667],[0.13583333333333333],[0],[0],[1],[0.21782809984870255],[None],523662,001,2024-10-11_11h51.19.639,visual search experiement,2024.2.1post4,59.81963183759981,2024-10-11 11h51.35.021398 +0530,
126,0,126,[-0.45916666666666667],[0.13583333333333333],[0],[0],[1],[0.18444179999642074],[None],126,0,126,0,185.38780450006016,,10,185.37074570008554,185.38780450006016,185.38780450006016,0.023174300091341138,185.55564570007846,[-0.45916666666666667],[0.13583333333333333],[0],[0],[1],[0.18444179999642074],[None],523662,001,2024-10-11_11h51.19.639,visual search experiement,2024.2.1post4,59.81963183759981,2024-10-11 11h51.35.021398 +0530,
127,0,127,[-0.45916666666666667],[0.13583333333333333],[0],[0],[1],[0.13503090012818575],[None],127,0,127,0,185.59507449995726,,10,185.57890999992378,185.59507449995726,185.59507449995726,0.02310890005901456,185.7143224000465,[-0.45916666666666667],[0.13583333333333333],[0],[0],[1],[0.13503090012818575],[None],523662,001,2024-10-11_11h51.19.639,visual search experiement,2024.2.1post4,59.81963183759981,2024-10-11 11h51.35.021398 +0530,
128,0,128,[-0.45916666666666667],[0.13583333333333333],[0],[0],[1],[0.12784759979695082],[None],128,0,128,0,185.7356454001274,,5,185.72634649998508,185.7356454001274,185.7356454001274,0.011868200032040477,185.85453590005636,[-0.45916666666666667],[0.13583333333333333],[0],[0],[1],[0.12784759979695082],[None],523662,001,2024-10-11_11h51.19.639,visual search experiement,2024.2.1post4,59.81963183759981,2024-10-11 11h51.35.021398 +0530,
129,0,129,[-0.45916666666666667],[0.13583333333333333],[0],[0],[1],[0.1276998999528587],[None],129,0,129,0,185.87515840004198,,5,185.86627570004202,185.87515840004198,185.87515840004198,0.011597900185734034,185.99431380000897,[-0.45916666666666667],[0.13583333333333333],[0],[0],[1],[0.1276998999528587],[None],523662,001,2024-10-11_11h51.19.639,visual search experiement,2024.2.1post4,59.81963183759981,2024-10-11 11h51.35.021398 +0530,
130,0,130,[0.14083333333333334],[0.0033333333333333335],[1],[0],[0],[1.125557899940759],['target'],130,0,130,0,186.01526989997365,,5,186.00668459990993,186.01526989997365,186.01526989997365,0.012250000145286322,187.13268460007384,[0.14083333333333334],[0.0033333333333333335],[1],[0],[0],[1.125557899940759],['target'],523662,001,2024-10-11_11h51.19.639,visual search experiement,2024.2.1post4,59.81963183759981,2024-10-11 11h51.35.021398 +0530,
131,0,131,[0.395],[0.0],[1],[0],[0],[1.042446400038898],['target'],131,0,131,0,187.15537100005895,,5,187.14727850002237,187.15537100005895,187.15537100005895,0.014435299905017018,188.1900694000069,[0.395],[0.0],[1],[0],[0],[1.042446400038898],['target'],523662,001,2024-10-11_11h51.19.639,visual search experiement,2024.2.1post4,59.81963183759981,2024-10-11 11h51.35.021398 +0530,
132,0,132,[-0.2725],[0.4225],[1],[0],[0],[1.9497458001133054],['target'],132,0,132,0,188.22997549991123,,10,188.21287339995615,188.22997549991123,188.22997549991123,0.022677999921143055,190.1629103999585,[-0.2725],[0.4225],[1],[0],[0],[1.9497458001133054],['target'],523662,001,2024-10-11_11h51.19.639,visual search experiement,2024.2.1post4,59.81963183759981,2024-10-11 11h51.35.021398 +0530,
133,0,133,[-0.085],[-0.2575],[1],[0],[0],[3.357088200049475],['target'],133,0,133,0,190.18246989999898,,5,190.1747510000132,190.18246989999898,190.18246989999898,0.011616099858656526,193.53219070006162,[-0.085],[-0.2575],[1],[0],[0],[3.357088200049475],['target'],523662,001,2024-10-11_11h51.19.639,visual search experiement,2024.2.1post4,59.81963183759981,2024-10-11 11h51.35.021398 +0530,
134,0,134,[-0.0825],[0.4241666666666667],[1],[0],[0],[1.2581292998511344],['target'],134,0,134,0,193.5538544000592,,5,193.54592070006765,193.5538544000592,193.5538544000592,0.013574999989941716,194.80438180011697,[-0.0825],[0.4241666666666667],[1],[0],[0],[1.2581292998511344],['target'],523662,001,2024-10-11_11h51.19.639,visual search experiement,2024.2.1post4,59.81963183759981,2024-10-11 11h51.35.021398 +0530,
135,0,135,[-0.0033333333333333335],[0.28583333333333333],[1],[0],[0],[1.0175115000456572],['target'],135,0,135,0,194.84530419996008,,10,194.827386100078,194.84530419996008,194.84530419996008,0.022864900063723326,195.84524590009823,[-0.0033333333333333335],[0.28583333333333333],[1],[0],[0],[1.0175115000456572],['target'],523662,001,2024-10-11_11h51.19.639,visual search experiement,2024.2.1post4,59.81963183759981,2024-10-11 11h51.35.021398 +0530,
136,0,136,[0.4275],[-0.4241666666666667],[1],[0],[0],[1.4746887001674622],['target'],136,0,136,0,195.86456879996695,,5,195.8568390000146,195.86456879996695,195.86456879996695,0.011439400026574731,197.33186729997396,[0.4275],[-0.4241666666666667],[1],[0],[0],[1.4746887001674622],['target'],523662,001,2024-10-11_11h51.19.639,visual search experiement,2024.2.1post4,59.81963183759981,2024-10-11 11h51.35.021398 +0530,
137,0,137,[-0.36666666666666664],[-0.165],[1],[0],[0],[1.2585408999584615],['target'],137,0,137,0,197.35221770009957,,5,197.34364919993095,197.35221770009957,197.35221770009957,0.011657900176942348,198.60247589997016,[-0.36666666666666664],[-0.165],[1],[0],[0],[1.2585408999584615],['target'],523662,001,2024-10-11_11h51.19.639,visual search experiement,2024.2.1post4,59.81963183759981,2024-10-11 11h51.35.021398 +0530,
138,0,138,[0.0],[0.38333333333333336],[1],[0],[0],[2.034858100116253],['target'],138,0,138,0,198.64361910009757,,10,198.62519049993716,198.64361910009757,198.64361910009757,0.022590000182390213,200.66057420009747,[0.0],[0.38333333333333336],[1],[0],[0],[2.034858100116253],['target'],523662,001,2024-10-11_11h51.19.639,visual search experiement,2024.2.1post4,59.81963183759981,2024-10-11 11h51.35.021398 +0530,
139,0,139,[0.034166666666666665],[-0.2275],[1],[0],[0],[1.2084611998870969],['target'],139,0,139,0,200.68071230011992,,5,200.67229639994912,200.68071230011992,200.68071230011992,0.011571799870580435,201.88110819994472,[0.034166666666666665],[-0.2275],[1],[0],[0],[1.2084611998870969],['target'],523662,001,2024-10-11_11h51.19.639,visual search experiement,2024.2.1post4,59.81963183759981,2024-10-11 11h51.35.021398 +0530,
140,0,140,[0.24916666666666668],[-0.4708333333333333],[1],[0],[0],[1.5911403999198228],['target'],140,0,140,0,201.90071810013615,,5,201.89271409995854,201.90071810013615,201.90071810013615,0.011448099976405501,203.48420860012993,[0.24916666666666668],[-0.4708333333333333],[1],[0],[0],[1.5911403999198228],['target'],523662,001,2024-10-11_11h51.19.639,visual search experiement,2024.2.1post4,59.81963183759981,2024-10-11 11h51.35.021398 +0530,
141,0,141,[-0.1325],[0.11166666666666666],[1],[0],[0],[1.200244199950248],['target'],141,0,141,0,203.52513769990765,,10,203.50849930010736,203.52513769990765,203.52513769990765,0.024174199905246496,204.70909180003218,[-0.1325],[0.11166666666666666],[1],[0],[0],[1.200244199950248],['target'],523662,001,2024-10-11_11h51.19.639,visual search experiement,2024.2.1post4,59.81963183759981,2024-10-11 11h51.35.021398 +0530,
142,0,142,[-0.2725],[-0.075],[1],[0],[0],[1.3184984000399709],['target'],142,0,142,0,204.74981720000505,,10,204.7314677000977,204.74981720000505,204.74981720000505,0.022202600026503205,206.0502730999142,[-0.2725],[-0.075],[1],[0],[0],[1.3184984000399709],['target'],523662,001,2024-10-11_11h51.19.639,visual search experiement,2024.2.1post4,59.81963183759981,2024-10-11 11h51.35.021398 +0530,
143,0,143,[0.195],[-0.0225],[1],[0],[0],[1.0424138000234962],['target'],143,0,143,0,206.07071110000834,,5,206.06195820006542,206.07071110000834,206.07071110000834,0.011517199920490384,207.10479500005022,[0.195],[-0.0225],[1],[0],[0],[1.0424138000234962],['target'],523662,001,2024-10-11_11h51.19.639,visual search experiement,2024.2.1post4,59.81963183759981,2024-10-11 11h51.35.021398 +0530,
