delay,freq,condition,thisN,thisTrialN,thisRepN,key_resp.keys,key_resp.rt,key_resp.duration,textbox.text,button.numClicks,button.timesOn,button.timesOff,trials.thisRepN,trials.thisTrialN,trials.thisN,trials.thisIndex,thisRow.t,notes,trial.started,polygon.started,polygon_2.started,key_resp.started,polygon.stopped,trial.stopped,trials.key_resp.keys,trials.key_resp.rt,trials.key_resp.duration,beeb.started,sound_1.started,sound_1.stopped,beeb.stopped,response.started,text.started,textbox.started,button.started,response.stopped,trials.textbox.text,trials.button.numClicks,trials.button.timesOn,trials.button.timesOff,participant,session,date,expName,psychopyVersion,frameRate,expStart,
0.4,1000,exp,0,0,0,space,0.2605782000173349,None,200,1,[2.4531101000029594],[2.4531157000164967],0,0,0,7,0.05629159999080002,,0.03883880001376383,0.05629159999080002,1.0058940000017174,1.0058940000017174,1.056088000012096,1.3545839000144042,space,0.2605782000173349,None,1.3551376000104938,1.7639276666780157,2.0886893999995664,2.065179299999727,2.065859199996339,2.0886893999995664,2.0886893999995664,2.0886893999995664,4.5423169000132475,200,1,[2.4531101000029594],[2.4531157000164967],Dhiraj 4,001,2024-11-08_14h51.58.437,Intentional binding,2024.2.2,60.31308522563748,2024-11-08 14h52.10.550627 +0530,
0.1,400,unexp,1,1,0,space,0.2870958999847062,None,100,1,[1.3686223000113387],[1.368630300014047],0,1,1,0,4.557858999993186,,4.542510400002357,4.557858999993186,5.5573861000011675,5.5573861000011675,5.5573861000011675,5.857919800007949,space,0.2870958999847062,None,5.858391899993876,5.957192866659413,6.2688188000174705,6.257155300001614,6.257499200000893,6.2688188000174705,6.2688188000174705,6.2688188000174705,7.637988800008316,100,1,[1.3686223000113387],[1.368630300014047],Dhiraj 4,001,2024-11-08_14h51.58.437,Intentional binding,2024.2.2,60.31308522563748,2024-11-08 14h52.10.550627 +0530,
0.4,1000,exp,2,2,0,space,0.6712661999918055,None,300,1,[1.1482046000019182],[1.148212300002342],0,2,2,4,7.653175300016301,,7.638180800015107,7.653175300016301,8.652699400001438,8.652699400001438,8.652699400001438,9.336344999988796,space,0.6712661999918055,None,9.336922899994534,9.752041366682777,10.066033600014634,10.05447629999253,10.05478820001008,10.066033600014634,10.066033600014634,10.066033600014634,11.214776400011033,300,1,[1.1482046000019182],[1.148212300002342],Dhiraj 4,001,2024-11-08_14h51.58.437,Intentional binding,2024.2.2,60.31308522563748,2024-11-08 14h52.10.550627 +0530,
0.1,1000,exp,3,3,0,space,0.30314209999050945,None,200,1,[1.2334776000061538],[1.2334853000065777],0,3,3,3,11.230295899993507,,11.214970300003188,11.230295899993507,12.229553000011947,12.229553000011947,12.229553000011947,12.546732399991015,space,0.30314209999050945,None,12.547285300010117,12.646128966680651,12.953488800005289,12.945130900014192,12.945469800004503,12.953488800005289,12.953488800005289,12.953488800005289,14.18745029999991,200,1,[1.2334776000061538],[1.2334853000065777],Dhiraj 4,001,2024-11-08_14h51.58.437,Intentional binding,2024.2.2,60.31308522563748,2024-11-08 14h52.10.550627 +0530,
0.4,1000,exp,4,4,0,space,0.6244506999792065,None,100,1,[1.2002063999825623],[1.2002131000044756],0,4,4,10,14.203151099995011,,14.187625799997477,14.203151099995011,15.20250539999688,15.20250539999688,15.20250539999688,15.83676090001245,space,0.6244506999792065,None,15.837212699989323,16.252127666670518,16.559498299990082,16.55061609999393,16.551035999989836,16.559498299990082,16.559498299990082,16.559498299990082,17.76018290000502,100,1,[1.2002063999825623],[1.2002131000044756],Dhiraj 4,001,2024-11-08_14h51.58.437,Intentional binding,2024.2.2,60.31308522563748,2024-11-08 14h52.10.550627 +0530,
0.7,1000,exp,5,5,0,space,0.40555899997707456,None,200,1,[2.1496581999817863],[2.149663899996085],0,5,5,11,17.77596560001257,,17.760373199998867,17.77596560001257,18.775205600017216,18.775205600017216,18.775205600017216,19.192487499996787,space,0.40555899997707456,None,19.19292180001503,19.89157206667393,20.196555300004547,20.1878379000118,20.18826990001253,20.196555300004547,20.196555300004547,20.196555300004547,22.346667900012108,200,1,[2.1496581999817863],[2.149663899996085],Dhiraj 4,001,2024-11-08_14h51.58.437,Intentional binding,2024.2.2,60.31308522563748,2024-11-08 14h52.10.550627 +0530,
0.7,1000,exp ,6,6,0,space,0.28516010000021197,None,200,1,[1.2009569999936502],[1.2009637000155635],0,6,6,8,22.362268400000175,,22.346863400016446,22.362268400000175,23.361699800007045,23.361699800007045,23.361699800007045,23.66241489999811,space,0.28516010000021197,None,23.662897800008068,24.37787726667399,24.686952099989867,24.67894919999526,24.679243199992925,24.686952099989867,24.686952099989867,24.686952099989867,25.888337700016564,200,1,[1.2009569999936502],[1.2009637000155635],Dhiraj 4,001,2024-11-08_14h51.58.437,Intentional binding,2024.2.2,60.31308522563748,2024-11-08 14h52.10.550627 +0530,
0.1,1000,exp,7,7,0,space,0.3606353999930434,None,300,1,[1.3331963999953587],[1.3332026000134647],0,7,7,6,25.90420260000974,,25.88855639999383,25.90420260000974,26.90349110000534,26.90349110000534,26.90349110000534,27.270807199995033,space,0.3606353999930434,None,27.271396399999503,27.370062766658762,27.684818000008818,27.665200099989306,27.66552499998943,27.684818000008818,27.684818000008818,27.684818000008818,29.018524000013713,300,1,[1.3331963999953587],[1.3332026000134647],Dhiraj 4,001,2024-11-08_14h51.58.437,Intentional binding,2024.2.2,60.31308522563748,2024-11-08 14h52.10.550627 +0530,
0.7,400,unexp,8,8,0,space,0.4228251999884378,None,200,1,[1.1682138000032865],[1.168223599990597],0,8,8,2,29.034311600000365,,29.018731899996055,29.034311600000365,30.0338250999921,30.0338250999921,30.0338250999921,30.46757490001619,space,0.4228251999884378,None,30.468032700009644,31.18343066666081,31.492073500005063,31.483704300015233,31.484000800002832,31.492073500005063,31.492073500005063,31.492073500005063,32.660798500000965,200,1,[1.1682138000032865],[1.168223599990597],Dhiraj 4,001,2024-11-08_14h51.58.437,Intentional binding,2024.2.2,60.31308522563748,2024-11-08 14h52.10.550627 +0530,
0.1,1000,exp,9,9,0,space,0.4299287000030745,None,200,1,[1.3168333000212442],[1.3168411000224296],0,9,9,9,32.676270900003146,,32.6610084999993,32.676270900003146,33.676287000009324,33.676287000009324,33.676287000009324,34.1093067000038,space,0.4299287000030745,None,34.10985320000327,34.208583366682674,34.523638799990295,34.50871230001212,34.50900019999244,34.523638799990295,34.523638799990295,34.523638799990295,35.84108489999198,200,1,[1.3168333000212442],[1.3168411000224296],Dhiraj 4,001,2024-11-08_14h51.58.437,Intentional binding,2024.2.2,60.31308522563748,2024-11-08 14h52.10.550627 +0530,
0.4,400,unexp,10,10,0,space,0.3656421999912709,None,200,1,[1.266804700018838],[1.2668119000154547],0,10,10,1,35.85649559999001,,35.841269399999874,35.85649559999001,36.85594259999925,36.85594259999925,36.85594259999925,37.22316220001085,space,0.3656421999912709,None,37.223623199999565,37.638895166663374,37.945117900002515,37.93707680000807,37.93738439999288,37.945117900002515,37.945117900002515,37.945117900002515,39.21243410001625,200,1,[1.266804700018838],[1.2668119000154547],Dhiraj 4,001,2024-11-08_14h51.58.437,Intentional binding,2024.2.2,60.31308522563748,2024-11-08 14h52.10.550627 +0530,
0.7,1000,exp,11,11,0,space,0.3086295999819413,None,300,1,[1.2160058000008576],[1.216013600002043],0,11,11,5,39.228150400012964,,39.21263029999682,39.228150400012964,40.2282406000013,40.2282406000013,40.2282406000013,40.54492620000383,space,0.3086295999819413,None,40.54537629999686,41.26041346666558,41.58585279999534,41.56421450001653,41.56452129999525,41.58585279999534,41.58585279999534,41.58585279999534,42.802367800002685,300,1,[1.2160058000008576],[1.216013600002043],Dhiraj 4,001,2024-11-08_14h51.58.437,Intentional binding,2024.2.2,60.31308522563748,2024-11-08 14h52.10.550627 +0530,
0.4,1000,exp,12,0,1,space,0.283713999990141,None,100,1,[1.1832020000147168],[1.1832099000166636],1,0,12,7,42.818207700009225,,42.802560500014806,42.818207700009225,43.818054900009884,43.818054900009884,43.818054900009884,44.103166899993084,space,0.283713999990141,None,44.10361120000016,44.517328566671736,44.82530759999645,44.817074599995976,44.8173744000087,44.82530759999645,44.82530759999645,44.82530759999645,46.009018000011565,100,1,[1.1832020000147168],[1.1832099000166636],Dhiraj 4,001,2024-11-08_14h51.58.437,Intentional binding,2024.2.2,60.31308522563748,2024-11-08 14h52.10.550627 +0530,
0.4,400,unexp,13,1,1,space,0.3621790999895893,None,200,1,[1.116576400003396],[1.1165818000154104],1,1,13,1,46.024885499995435,,46.009224100009305,46.024885499995435,47.007719599991105,47.007719599991105,47.0243877999892,47.37489189999178,space,0.3621790999895893,None,47.375338300014846,47.774400366677824,48.078787300008116,48.070438499999,48.070752300001914,48.078787300008116,48.078787300008116,48.078787300008116,49.195778299996164,200,1,[1.116576400003396],[1.1165818000154104],Dhiraj 4,001,2024-11-08_14h51.58.437,Intentional binding,2024.2.2,60.31308522563748,2024-11-08 14h52.10.550627 +0530,
0.4,1000,exp,14,2,1,space,0.33134350000182167,None,200,1,[1.1334077999927104],[1.1334145999862812],1,2,14,4,49.211854799999855,,49.19595190000837,49.211854799999855,50.21173720000661,50.21173720000661,50.21173720000661,50.54487599999993,space,0.33134350000182167,None,50.54529480001656,50.94429106667327,51.24672140000621,51.238437399995746,51.23877270001685,51.24672140000621,51.24672140000621,51.24672140000621,52.38063729999703,200,1,[1.1334077999927104],[1.1334145999862812],Dhiraj 4,001,2024-11-08_14h51.58.437,Intentional binding,2024.2.2,60.31308522563748,2024-11-08 14h52.10.550627 +0530,
0.7,1000,exp ,15,3,1,space,0.3639462999999523,None,100,1,[1.1170251999865286],[1.117031700006919],1,3,15,8,52.39649479999207,,52.3808466999908,52.39649479999207,53.395928000012645,53.395928000012645,53.395928000012645,53.763238799991086,space,0.3639462999999523,None,53.76368249999359,54.47874116668051,54.78829920000862,54.77980280001066,54.78019300001324,54.78829920000862,54.78829920000862,54.78829920000862,55.905724999989616,100,1,[1.1170251999865286],[1.117031700006919],Dhiraj 4,001,2024-11-08_14h51.58.437,Intentional binding,2024.2.2,60.31308522563748,2024-11-08 14h52.10.550627 +0530,
0.7,400,unexp,16,4,1,space,0.326399899990065,None,200,1,[1.366767700004857],[1.366777599992929],1,4,16,2,55.92175790001056,,55.90593830001308,55.92175790001056,56.92103970001335,56.92103970001335,56.92103970001335,57.25502159999451,space,0.326399899990065,None,57.255687099997886,57.97051046666844,58.28538390001631,58.26779280000483,58.26808750000782,58.28538390001631,58.28538390001631,58.28538390001631,59.65258840000024,200,1,[1.366767700004857],[1.366777599992929],Dhiraj 4,001,2024-11-08_14h51.58.437,Intentional binding,2024.2.2,60.31308522563748,2024-11-08 14h52.10.550627 +0530,
0.1,1000,exp,17,5,1,space,0.23939279999467544,None,100,1,[2.4015214999963064],[2.401527200010605],1,5,17,3,59.66826860001311,,59.65276269998867,59.66826860001311,60.66780210001161,60.66780210001161,60.66780210001161,60.91835620001075,space,0.23939279999467544,None,60.91898879999644,61.01756716668412,61.32629260001704,61.318508099997416,61.31883140001446,61.32629260001704,61.32629260001704,61.32629260001704,63.72822419999284,100,1,[2.4015214999963064],[2.401527200010605],Dhiraj 4,001,2024-11-08_14h51.58.437,Intentional binding,2024.2.2,60.31308522563748,2024-11-08 14h52.10.550627 +0530,
0.7,1000,exp,18,6,1,space,0.28344460000516847,None,100,1,[1.1670348000188824],[1.167040200001793],1,6,18,11,63.743248599988874,,63.72839850001037,63.743248599988874,64.7426332999894,64.7426332999894,64.7426332999894,65.02738429998863,space,0.28344460000516847,None,65.02784500000416,65.74246286668155,66.05710880001425,66.04374620001181,66.04404370000702,66.05710880001425,66.05710880001425,66.05710880001425,67.22453569999197,100,1,[1.1670348000188824],[1.167040200001793],Dhiraj 4,001,2024-11-08_14h51.58.437,Intentional binding,2024.2.2,60.31308522563748,2024-11-08 14h52.10.550627 +0530,
0.1,1000,exp,19,7,1,space,0.25292410000110976,None,200,1,[1.5833059000142384],[1.583313500013901],1,7,19,9,67.24001519999001,,67.22472620001645,67.24001519999001,68.23955460000434,68.23955460000434,68.23955460000434,68.50650839999435,space,0.25292410000110976,None,68.50698589999229,68.60595396667874,68.9103834000125,68.90245180000784,68.90273770000204,68.9103834000125,68.9103834000125,68.9103834000125,70.49420109999483,200,1,[1.5833059000142384],[1.583313500013901],Dhiraj 4,001,2024-11-08_14h51.58.437,Intentional binding,2024.2.2,60.31308522563748,2024-11-08 14h52.10.550627 +0530,
0.7,1000,exp,20,8,1,space,0.35853060000226833,None,200,1,[1.2169180999917444],[1.216927500005113],1,8,20,5,70.50984509999398,,70.49437550001312,70.50984509999398,71.50933239998994,71.50933239998994,71.50933239998994,71.87639630000922,space,0.35853060000226833,None,71.87692280000192,72.57554826667571,72.87897359998897,72.87046050000936,72.87084750001668,72.87897359998897,72.87897359998897,72.87897359998897,74.0963246000174,200,1,[1.2169180999917444],[1.216927500005113],Dhiraj 4,001,2024-11-08_14h51.58.437,Intentional binding,2024.2.2,60.31308522563748,2024-11-08 14h52.10.550627 +0530,
0.1,1000,exp,21,9,1,space,0.7174140999850351,None,100,1,[1.4167445999919437],[1.416752399993129],1,9,21,6,74.11190489999717,,74.09650300000794,74.11190489999717,75.11131850001402,75.11131850001402,75.11131850001402,75.8447165999969,space,0.7174140999850351,None,75.84516719999374,75.94436816667827,76.24952040001517,76.24109830000089,76.24139850001666,76.24952040001517,76.24952040001517,76.24952040001517,77.66689610001049,100,1,[1.4167445999919437],[1.416752399993129],Dhiraj 4,001,2024-11-08_14h51.58.437,Intentional binding,2024.2.2,60.31308522563748,2024-11-08 14h52.10.550627 +0530,
0.4,1000,exp,22,10,1,space,0.4418162000074517,None,100,1,[1.2181089999794494],[1.2181188999966253],1,10,22,10,77.68245300001581,,77.66709760000231,77.68245300001581,78.68184740000288,78.68184740000288,78.68184740000288,79.13229899998987,space,0.4418162000074517,None,79.13282080000499,79.53154646666759,79.8400854000065,79.83190180000383,79.83223289999296,79.8400854000065,79.8400854000065,79.8400854000065,81.05877289999626,100,1,[1.2181089999794494],[1.2181188999966253],Dhiraj 4,001,2024-11-08_14h51.58.437,Intentional binding,2024.2.2,60.31308522563748,2024-11-08 14h52.10.550627 +0530,
0.1,400,unexp,23,11,1,space,0.2996366000152193,None,300,1,[1.2998090000182856],[1.2998164000164252],1,11,23,0,81.07427770001232,,81.05903380000382,81.07427770001232,82.0740497999941,82.0740497999941,82.0740497999941,82.37474130000919,space,0.2996366000152193,None,82.37526229998912,82.4738077666591,82.78841579999425,82.76972720000776,82.77001070001279,82.78841579999425,82.78841579999425,82.78841579999425,84.08864840000751,300,1,[1.2998090000182856],[1.2998164000164252],Dhiraj 4,001,2024-11-08_14h51.58.437,Intentional binding,2024.2.2,60.31308522563748,2024-11-08 14h52.10.550627 +0530,
0.1,400,unexp,24,0,2,space,0.3153495999868028,None,200,1,[1.233558699983405],[1.2335659000091255],2,0,24,0,84.10465870000189,,84.0888610999973,84.10465870000189,85.1046195999952,85.1046195999952,85.1046195999952,85.42151849999209,space,0.3153495999868028,None,85.42196470001363,85.52091626666176,85.82875690000947,85.81973560000188,85.82004099999904,85.82875690000947,85.82875690000947,85.82875690000947,87.06276930001331,200,1,[1.233558699983405],[1.2335659000091255],Dhiraj 4,001,2024-11-08_14h51.58.437,Intentional binding,2024.2.2,60.31308522563748,2024-11-08 14h52.10.550627 +0530,
0.4,400,unexp,25,1,2,space,0.211803999991389,None,200 ,1,[2.7823930000013206],[2.7823984999849927],2,1,25,1,87.07837679999648,,87.06297540001106,87.07837679999648,88.07775130000664,88.07775130000664,88.07775130000664,88.29508080001688,space,0.211803999991389,None,88.2955554999935,88.69466016666071,89.01925599999959,88.99850990000414,88.99883739999495,89.01925599999959,89.01925599999959,89.01925599999959,91.80211160000181,200 ,1,[2.7823930000013206],[2.7823984999849927],Dhiraj 4,001,2024-11-08_14h51.58.437,Intentional binding,2024.2.2,60.31308522563748,2024-11-08 14h52.10.550627 +0530,
0.4,1000,exp,26,2,2,space,0.4404504999984056,None,100,1,[1.2001324000011664],[1.2001406000053976],2,2,26,7,91.81803200001013,,91.80229749999125,91.81803200001013,92.80116550001549,92.80116550001549,92.81790590001037,93.25124020001385,space,0.4404504999984056,None,93.25168750001467,93.65120386667355,93.95623320000595,93.94781499999226,93.94819520000601,93.95623320000595,93.95623320000595,93.95623320000595,95.15676740001072,100,1,[1.2001324000011664],[1.2001406000053976],Dhiraj 4,001,2024-11-08_14h51.58.437,Intentional binding,2024.2.2,60.31308522563748,2024-11-08 14h52.10.550627 +0530,
0.7,1000,exp,27,3,2,space,0.40953710000030696,None,100,1,[1.1171509999840055],[1.1171566999983042],2,3,27,11,95.17264500001329,,95.15694869999425,95.17264500001329,96.17200890000095,96.17200890000095,96.17200890000095,96.5889038000023,space,0.40953710000030696,None,96.58937000000151,97.28858906668417,97.59441059999517,97.58552290001535,97.5858697000076,97.59441059999517,97.59441059999517,97.59441059999517,98.71205870000995,100,1,[1.1171509999840055],[1.1171566999983042],Dhiraj 4,001,2024-11-08_14h51.58.437,Intentional binding,2024.2.2,60.31308522563748,2024-11-08 14h52.10.550627 +0530,
0.1,1000,exp,28,4,2,space,0.4083039999823086,None,100,1,[1.150060299987672],[1.1500658000004478],2,4,28,3,98.72752750001382,,98.7122852000175,98.72752750001382,99.72739189999993,99.72739189999993,99.72739189999993,100.14430819998961,space,0.4083039999823086,None,100.14480209999601,100.24387806666006,100.54818420001538,100.53980319999391,100.5400942999986,100.54818420001538,100.54818420001538,100.54818420001538,101.6986995000043,100,1,[1.150060299987672],[1.1500658000004478],Dhiraj 4,001,2024-11-08_14h51.58.437,Intentional binding,2024.2.2,60.31308522563748,2024-11-08 14h52.10.550627 +0530,
0.4,1000,exp,29,5,2,space,0.23000170002342202,None,200,1,[1.1666629999817815],[1.1666675999877043],2,5,29,4,101.71450669999467,,101.69888350000838,101.71450669999467,102.71394180000061,102.71394180000061,102.71394180000061,102.94797680000192,space,0.23000170002342202,None,102.9485871999932,103.34711606667067,103.65193769999314,103.64379609999014,103.64409360001446,103.65193769999314,103.65193769999314,103.65193769999314,104.81904780000332,200,1,[1.1666629999817815],[1.1666675999877043],Dhiraj 4,001,2024-11-08_14h51.58.437,Intentional binding,2024.2.2,60.31308522563748,2024-11-08 14h52.10.550627 +0530,
0.1,1000,exp,30,6,2,space,0.2826465000107419,None,200,1,[1.2668007999891415],[1.2668081999872811],2,6,30,9,104.83505670001614,,104.81925239998964,104.83505670001614,105.83452209999086,105.83452209999086,105.83452209999086,106.11840159998974,space,0.2826465000107419,None,106.11882440000772,106.21822406666276,106.52139290000196,106.51305390000925,106.5133419999911,106.52139290000196,106.52139290000196,106.52139290000196,107.78870639999514,200,1,[1.2668007999891415],[1.2668081999872811],Dhiraj 4,001,2024-11-08_14h51.58.437,Intentional binding,2024.2.2,60.31308522563748,2024-11-08 14h52.10.550627 +0530,
0.7,400,unexp,31,7,2,space,0.4671200000157114,None,200,1,[1.2998155000095721],[1.2998222000023816],2,7,31,2,107.80427329998929,,107.78888460001326,107.80427329998929,108.8037234999938,108.8037234999938,108.8037234999938,109.27238460001536,space,0.4671200000157114,None,109.27280549998977,109.98676976666708,110.31151150001097,110.28948669999954,110.28978490000009,110.31151150001097,110.31151150001097,110.31151150001097,111.61185380001552,200,1,[1.2998155000095721],[1.2998222000023816],Dhiraj 4,001,2024-11-08_14h51.58.437,Intentional binding,2024.2.2,60.31308522563748,2024-11-08 14h52.10.550627 +0530,
0.1,1000,exp,32,8,2,space,0.21714279998559505,None,300,1,[1.3505565999948885],[1.3505631999869365],2,8,32,6,111.62777520000236,,111.61204710000311,111.62777520000236,112.6271425000159,112.6271425000159,112.6271425000159,112.8608918999962,space,0.21714279998559505,None,112.86138230000506,112.96033906666368,113.2697252999933,113.26081959999283,113.26121970001259,113.2697252999933,113.2697252999933,113.2697252999933,114.6206916999945,300,1,[1.3505565999948885],[1.3505631999869365],Dhiraj 4,001,2024-11-08_14h51.58.437,Intentional binding,2024.2.2,60.31308522563748,2024-11-08 14h52.10.550627 +0530,
0.4,1000,exp,33,9,2,space,0.32470110000576824,None,200,1,[1.0001441999920644],[1.0001496000040788],2,9,33,10,114.63662989999284,,114.62088430000586,114.63662989999284,115.63587309999275,115.63587309999275,115.63587309999275,115.96960270000272,space,0.32470110000576824,None,115.97021030000178,116.3687713666625,116.683720800007,116.66777610001736,116.66806610001368,116.683720800007,116.683720800007,116.683720800007,117.68427649998921,200,1,[1.0001441999920644],[1.0001496000040788],Dhiraj 4,001,2024-11-08_14h51.58.437,Intentional binding,2024.2.2,60.31308522563748,2024-11-08 14h52.10.550627 +0530,
0.7,1000,exp ,34,10,2,space,0.391451599978609,None,100,1,[2.1162360000016633],[2.116242999996757],2,10,34,8,117.70015049999347,,117.68445900001097,117.70015049999347,118.69951330000185,118.69951330000185,118.69951330000185,119.10008299999754,space,0.391451599978609,None,119.10054819998913,119.79913476665776,120.1238999000052,120.10259210001095,120.10288530000253,120.1238999000052,120.1238999000052,120.1238999000052,122.240606700012,100,1,[2.1162360000016633],[2.116242999996757],Dhiraj 4,001,2024-11-08_14h51.58.437,Intentional binding,2024.2.2,60.31308522563748,2024-11-08 14h52.10.550627 +0530,
0.7,1000,exp,35,11,2,space,0.3353903000243008,None,200,1,[1.133746000006795],[1.133753300004173],2,11,35,5,122.2564415000088,,122.24081320001278,122.2564415000088,123.25598929999978,123.25598929999978,123.25598929999978,123.60636740000336,space,0.3353903000243008,None,123.60694070000318,124.30547716666867,124.6118284999975,124.6037930000166,124.60409030001028,124.6118284999975,124.6118284999975,124.6118284999975,125.74607369999285,200,1,[1.133746000006795],[1.133753300004173],Dhiraj 4,001,2024-11-08_14h51.58.437,Intentional binding,2024.2.2,60.31308522563748,2024-11-08 14h52.10.550627 +0530,
0.7,400,unexp,36,0,3,space,0.2654365000198595,None,200,1,[1.2512619000044651],[1.2512673999881372],3,0,36,2,125.7615991999919,,125.74625110000488,125.7615991999919,126.76093270001002,126.76093270001002,126.76093270001002,127.02803129999666,space,0.2654365000198595,None,127.02849450000213,127.72710566668344,128.03594780000276,128.02774960000534,128.02804040000774,128.03594780000276,128.03594780000276,128.03594780000276,129.2876041000127,200,1,[1.2512619000044651],[1.2512673999881372],Dhiraj 4,001,2024-11-08_14h51.58.437,Intentional binding,2024.2.2,60.31308522563748,2024-11-08 14h52.10.550627 +0530,
0.4,400,unexp,37,1,3,space,0.2837621999788098,None,100,1,[1.1169231999956537],[1.1169308999960776],3,1,37,1,129.30350619999808,,129.28781899999012,129.30350619999808,130.28652220001095,130.28652220001095,130.30275729999994,130.5866931999917,space,0.2837621999788098,None,130.58716299998923,130.98572806668042,131.30066629999783,131.28110339998966,131.2813945999951,131.30066629999783,131.30066629999783,131.30066629999783,132.41803180001443,100,1,[1.1169231999956537],[1.1169308999960776],Dhiraj 4,001,2024-11-08_14h51.58.437,Intentional binding,2024.2.2,60.31308522563748,2024-11-08 14h52.10.550627 +0530,
0.7,1000,exp ,38,2,3,space,0.24157769998419099,None,200,1,[1.0673206999781542],[1.0673262999916915],3,2,38,8,132.4336595000059,,132.41821209999034,132.4336595000059,133.43321170000127,133.43321170000127,133.43321170000127,133.68357339999056,space,0.24157769998419099,None,133.68411130001186,134.38270576668245,134.69227470000624,134.68395710000186,134.68433740001637,134.69227470000624,134.69227470000624,134.69227470000624,135.76003900001524,200,1,[1.0673206999781542],[1.0673262999916915],Dhiraj 4,001,2024-11-08_14h51.58.437,Intentional binding,2024.2.2,60.31308522563748,2024-11-08 14h52.10.550627 +0530,
0.4,1000,exp,39,3,3,space,0.35260999997262843,None,200,1,[1.2663633000047412],[1.2663709000044037],3,3,39,10,135.77577239999664,,135.76030419999734,135.77577239999664,136.77502490000916,136.77502490000916,136.77502490000916,137.14212140001473,space,0.35260999997262843,None,137.1427129000076,137.5415946666656,137.85664220000035,137.84127420000732,137.84161830000812,137.85664220000035,137.85664220000035,137.85664220000035,139.1235588999989,200,1,[1.2663633000047412],[1.2663709000044037],Dhiraj 4,001,2024-11-08_14h51.58.437,Intentional binding,2024.2.2,60.31308522563748,2024-11-08 14h52.10.550627 +0530,
0.1,400,unexp,40,4,3,space,0.9409969000262208,None,100,1,[1.3176197999855503],[1.3176265000074636],3,4,40,0,139.13915430000634,,139.12375900000916,139.13915430000634,140.13863210001728,140.13863210001728,140.13863210001728,141.08877500001108,space,0.9409969000262208,None,141.08941459999187,141.18818566666258,141.497474600008,141.48919079999905,141.4894811999984,141.497474600008,141.497474600008,141.497474600008,142.81553839999833,100,1,[1.3176197999855503],[1.3176265000074636],Dhiraj 4,001,2024-11-08_14h51.58.437,Intentional binding,2024.2.2,60.31308522563748,2024-11-08 14h52.10.550627 +0530,
0.4,1000,exp,41,5,3,space,0.2806127999792807,None,200,1,[1.3498582000029273],[1.349864300020272],3,5,41,7,142.8310136999935,,142.8157452000014,142.8310136999935,143.8302005000005,143.8302005000005,143.8302005000005,144.1140069999965,space,0.2806127999792807,None,144.11448370001744,144.51330226665985,144.82818209999823,144.8134609000117,144.81375840000692,144.82818209999823,144.82818209999823,144.82818209999823,146.17844129999867,200,1,[1.3498582000029273],[1.349864300020272],Dhiraj 4,001,2024-11-08_14h51.58.437,Intentional binding,2024.2.2,60.31308522563748,2024-11-08 14h52.10.550627 +0530,
0.1,1000,exp,42,6,3,space,0.2650063000037335,None,100,1,[1.2499495999945793],[1.24995569998282],3,6,42,9,146.19442099999287,,146.1786640000064,146.19442099999287,147.19375840001157,147.19375840001157,147.19375840001157,147.4612047999981,space,0.2650063000037335,None,147.46177250001347,147.56041366665548,147.86663870001212,147.8574801000068,147.85788399999728,147.86663870001212,147.86663870001212,147.86663870001212,149.117081400007,100,1,[1.2499495999945793],[1.24995569998282],Dhiraj 4,001,2024-11-08_14h51.58.437,Intentional binding,2024.2.2,60.31308522563748,2024-11-08 14h52.10.550627 +0530,
0.4,1000,exp,43,7,3,space,0.35931539998273365,None,200,1,[1.3832314999890514],[1.3832363999972586],3,7,43,4,149.13296250000712,,149.11726870000712,149.13296250000712,150.13251980001223,150.13251980001223,150.13251980001223,150.49957919999724,space,0.35931539998273365,None,150.50013100000797,150.8987316666792,151.20525860000635,151.19611769999028,151.1964597000042,151.20525860000635,151.20525860000635,151.20525860000635,152.58900880001602,200,1,[1.3832314999890514],[1.3832363999972586],Dhiraj 4,001,2024-11-08_14h51.58.437,Intentional binding,2024.2.2,60.31308522563748,2024-11-08 14h52.10.550627 +0530,
0.1,1000,exp,44,8,3,space,0.24718669999856502,None,200,1,[1.3497233999951277],[1.34973029998946],3,8,44,6,152.60486640001182,,152.5891985000053,152.60486640001182,153.60427489998983,153.60427489998983,153.60427489998983,153.85459999999148,space,0.24718669999856502,None,153.85504560000845,153.95413906666025,154.27906060000532,154.2572063000116,154.25753040000563,154.27906060000532,154.27906060000532,154.27906060000532,155.62920570001006,200,1,[1.3497233999951277],[1.34973029998946],Dhiraj 4,001,2024-11-08_14h51.58.437,Intentional binding,2024.2.2,60.31308522563748,2024-11-08 14h52.10.550627 +0530,
0.7,1000,exp,45,9,3,space,0.34452470001997426,None,100,1,[1.050131500000134],[1.050138100021286],3,9,45,11,155.6451708000095,,155.62940440000966,155.6451708000095,156.62794370000483,156.62794370000483,156.64502170000924,156.97868410000228,space,0.34452470001997426,None,156.97920910001267,157.69474916666903,157.99910260000615,157.99084790001507,157.99117369999294,157.99910260000615,157.99910260000615,157.99910260000615,159.0496729000006,100,1,[1.050131500000134],[1.050138100021286],Dhiraj 4,001,2024-11-08_14h51.58.437,Intentional binding,2024.2.2,60.31308522563748,2024-11-08 14h52.10.550627 +0530,
0.7,1000,exp,46,10,3,space,0.27063450001878664,None,200,1,[1.233245800016448],[1.23325130000012],3,10,46,5,159.06550050000078,,159.04985380001017,159.06550050000078,160.06492989999242,160.06492989999242,160.06492989999242,160.34908010001527,space,0.27063450001878664,None,160.34951590001583,161.0652235666678,161.36973480001325,161.3611469999887,161.36143710001488,161.36973480001325,161.36973480001325,161.36973480001325,162.6034459999937,200,1,[1.233245800016448],[1.23325130000012],Dhiraj 4,001,2024-11-08_14h51.58.437,Intentional binding,2024.2.2,60.31308522563748,2024-11-08 14h52.10.550627 +0530,
0.1,1000,exp,47,11,3,space,0.3333069000218529,None,100,1,[1.3013030999863986],[1.3013095000060275],3,11,47,3,162.6194255000155,,162.60364020001725,162.6194255000155,163.61888699998963,163.61888699998963,163.61888699998963,163.9535361000162,space,0.3333069000218529,None,163.95397719999892,164.06892436667502,164.37750400000368,164.3691657000163,164.36947860001237,164.37750400000368,164.37750400000368,164.37750400000368,165.67920330000925,100,1,[1.3013030999863986],[1.3013095000060275],Dhiraj 4,001,2024-11-08_14h51.58.437,Intentional binding,2024.2.2,60.31308522563748,2024-11-08 14h52.10.550627 +0530,
0.7,1000,exp ,48,0,4,space,0.2680569999793079,None,100,1,[1.0333843000116758],[1.0333897999953479],4,0,48,8,165.6947102000122,,165.67943009999,165.6947102000122,166.69422269999632,166.69422269999632,166.69422269999632,166.9786340999999,space,0.2680569999793079,None,166.9791380999959,167.69376826667965,168.0086830999935,167.99627269999473,167.99663020001026,168.0086830999935,168.0086830999935,168.0086830999935,169.04248040000675,100,1,[1.0333843000116758],[1.0333897999953479],Dhiraj 4,001,2024-11-08_14h51.58.437,Intentional binding,2024.2.2,60.31308522563748,2024-11-08 14h52.10.550627 +0530,
0.4,1000,exp,49,1,4,space,0.40869300000485964,None,200,1,[1.3166389999969397],[1.316644999984419],4,1,49,4,169.05833259999054,,169.0426781999995,169.05833259999054,170.05772840001737,170.05772840001737,170.05772840001737,170.47500430000946,space,0.40869300000485964,None,170.47548819999793,170.89110556667245,171.19365010000183,171.18514190000133,171.18543310000678,171.19365010000183,171.19365010000183,171.19365010000183,172.51078640000196,200,1,[1.3166389999969397],[1.316644999984419],Dhiraj 4,001,2024-11-08_14h51.58.437,Intentional binding,2024.2.2,60.31308522563748,2024-11-08 14h52.10.550627 +0530,
0.7,1000,exp,50,2,4,space,0.2705244999960996,None,100,1,[1.1733891000039876],[1.173394699988421],4,2,50,5,172.5265800000052,,172.51097400000435,172.5265800000052,173.52599019999616,173.52599019999616,173.52599019999616,173.8105499999947,space,0.2705244999960996,None,173.81106670000008,174.52562156666343,174.83094390001497,174.82297979999566,174.82330740001635,174.83094390001497,174.83094390001497,174.83094390001497,176.00468959999853,100,1,[1.1733891000039876],[1.173394699988421],Dhiraj 4,001,2024-11-08_14h51.58.437,Intentional binding,2024.2.2,60.31308522563748,2024-11-08 14h52.10.550627 +0530,
0.4,1000,exp,51,3,4,space,0.2977680999902077,None,100,1,[1.2500211999868043],[1.250029299990274],4,3,51,7,176.02036880000378,,176.00487199999043,176.02036880000378,177.01975880001555,177.01975880001555,177.01975880001555,177.3203882999951,space,0.2977680999902077,None,177.3208617999917,177.71944506667595,178.04445139999734,178.0224853999971,178.02277820001473,178.04445139999734,178.04445139999734,178.04445139999734,179.29492869999376,100,1,[1.2500211999868043],[1.250029299990274],Dhiraj 4,001,2024-11-08_14h51.58.437,Intentional binding,2024.2.2,60.31308522563748,2024-11-08 14h52.10.550627 +0530,
0.4,1000,exp,52,4,4,space,0.49420779998763464,None,200,1,[2.9160916000255384],[2.9160969000076875],4,4,52,10,179.3105831000139,,179.29512640001485,179.3105831000139,180.3101094000158,180.3101094000158,180.3101094000158,180.81062540001585,space,0.49420779998763464,None,180.81118429999333,181.20978556666913,181.5194632000057,181.51080970000476,181.51110000000335,181.5194632000057,181.5194632000057,181.5194632000057,184.43597150000278,200,1,[2.9160916000255384],[2.9160969000076875],Dhiraj 4,001,2024-11-08_14h51.58.437,Intentional binding,2024.2.2,60.31308522563748,2024-11-08 14h52.10.550627 +0530,
0.1,400,unexp,53,5,4,space,9.132384299999103,None,200,1,[3.199084899999434],[3.1990913999907207],4,5,53,0,184.45172420001472,,184.43615779999527,184.45172420001472,185.45186930001364,185.45186930001364,185.45186930001364,194.5979682999896,space,9.132384299999103,None,194.59847269998863,194.69742846666875,195.0121580999985,194.99315789999673,194.9934462000092,195.0121580999985,195.0121580999985,195.0121580999985,198.2116781999939,200,1,[3.199084899999434],[3.1990913999907207],Dhiraj 4,001,2024-11-08_14h51.58.437,Intentional binding,2024.2.2,60.31308522563748,2024-11-08 14h52.10.550627 +0530,
0.7,1000,exp,54,6,4,space,28.36753079999471,None,200,1,[1.5507265999913216],[1.5507357000024058],4,6,54,11,198.2274793999968,,198.21188280000933,198.2274793999968,199.22679390001576,199.22679390001576,199.22679390001576,227.5988032000023,space,28.36753079999471,None,227.59931890000007,228.31508806668378,228.62389560000156,228.6146846000047,228.61503240000457,228.62389560000156,228.62389560000156,228.62389560000156,230.17519300000276,200,1,[1.5507265999913216],[1.5507357000024058],Dhiraj 4,001,2024-11-08_14h51.58.437,Intentional binding,2024.2.2,60.31308522563748,2024-11-08 14h52.10.550627 +0530,
0.1,1000,exp,55,7,4,space,0.29564190001110546,None,300,1,[1.3332702000043355],[1.3332777000032365],4,7,55,6,230.1905226999952,,230.17540010000812,230.1905226999952,231.1897772999946,231.1897772999946,231.1897772999946,231.49049530000775,space,0.29564190001110546,None,231.49104140000418,231.60623136666644,231.9212053999945,231.90639290001127,231.9066862000036,231.9212053999945,231.9212053999945,231.9212053999945,233.2550249999913,300,1,[1.3332702000043355],[1.3332777000032365],Dhiraj 4,001,2024-11-08_14h51.58.437,Intentional binding,2024.2.2,60.31308522563748,2024-11-08 14h52.10.550627 +0530,
0.1,1000,exp,56,8,4,space,0.2712935000017751,None,200,1,[1.4334498000098392],[1.4334554999950342],4,8,56,3,233.2706271999923,,233.2552079000161,233.2706271999923,234.27014919999056,234.27014919999056,234.27014919999056,234.553874300007,space,0.2712935000017751,None,234.554441699991,234.6532042666552,234.95849029999226,234.95055090001551,234.9508385999943,234.95849029999226,234.95849029999226,234.95849029999226,236.39231460000155,200,1,[1.4334498000098392],[1.4334554999950342],Dhiraj 4,001,2024-11-08_14h51.58.437,Intentional binding,2024.2.2,60.31308522563748,2024-11-08 14h52.10.550627 +0530,
0.1,1000,exp,57,9,4,space,0.26643869999679737,None,200,1,[1.6163740000047255],[1.6163795000175014],4,9,57,9,236.4080326000112,,236.3924995000125,236.4080326000112,237.40756349998992,237.40756349998992,237.40756349998992,237.67528490000404,space,0.26643869999679737,None,237.67571390001103,237.790668166683,238.09606979999808,238.08716429999913,238.08744940001634,238.09606979999808,238.09606979999808,238.09606979999808,239.71283520001452,200,1,[1.6163740000047255],[1.6163795000175014],Dhiraj 4,001,2024-11-08_14h51.58.437,Intentional binding,2024.2.2,60.31308522563748,2024-11-08 14h52.10.550627 +0530,
0.7,400,unexp,58,10,4,space,0.256421500002034,None,200,1,[1.1335982999880798],[1.1336049000092316],4,10,58,2,239.72868309999467,,239.71301619999576,239.72868309999467,240.72826380000333,240.72826380000333,240.72826380000333,240.99511250000796,space,0.256421500002034,None,240.99563849999686,241.69470666666555,241.99838999999338,241.99056619999465,241.99086089999764,241.99838999999338,241.99838999999338,241.99838999999338,243.1324050000112,200,1,[1.1335982999880798],[1.1336049000092316],Dhiraj 4,001,2024-11-08_14h51.58.437,Intentional binding,2024.2.2,60.31308522563748,2024-11-08 14h52.10.550627 +0530,
0.4,400,unexp,59,11,4,space,0.2145262000267394,None,300,1,[1.2998605000029784],[1.2998654000111856],4,11,59,1,243.1479951000074,,243.13259530000505,243.1479951000074,244.14751680000336,244.14751680000336,244.14751680000336,244.36449300000095,space,0.2145262000267394,None,244.36509770000703,244.76467306667863,245.07111140000052,245.06283149999217,245.06311819999246,245.07111140000052,245.07111140000052,245.07111140000052,246.37140299999737,300,1,[1.2998605000029784],[1.2998654000111856],Dhiraj 4,001,2024-11-08_14h51.58.437,Intentional binding,2024.2.2,60.31308522563748,2024-11-08 14h52.10.550627 +0530,
0.1,1000,exp,60,0,5,space,0.3387749999819789,None,200,1,[1.6333482000045478],[1.6333556000026874],5,0,60,3,246.3874357000168,,246.37158840001212,246.3874357000168,247.3867464000068,247.3867464000068,247.3867464000068,247.73732819998986,space,0.3387749999819789,None,247.73788380000042,247.83652496667153,248.14306130001205,248.13447459999588,248.13479810001445,248.14306130001205,248.14306130001205,248.14306130001205,249.776838699996,200,1,[1.6333482000045478],[1.6333556000026874],Dhiraj 4,001,2024-11-08_14h51.58.437,Intentional binding,2024.2.2,60.31308522563748,2024-11-08 14h52.10.550627 +0530,
0.4,1000,exp,61,1,5,space,0.24813410002388991,None,200,1,[1.2668737999920268],[1.2668792000040412],5,1,61,10,249.79259470000397,,249.7770307000028,249.79259470000397,250.79201800000737,250.79201800000737,250.79201800000737,251.04230890001054,space,0.24813410002388991,None,251.0428099000128,251.4424905666713,251.7479607000132,251.7398736999894,251.74017179998918,251.7479607000132,251.7479607000132,251.7479607000132,253.01524320000317,200,1,[1.2668737999920268],[1.2668792000040412],Dhiraj 4,001,2024-11-08_14h51.58.437,Intentional binding,2024.2.2,60.31308522563748,2024-11-08 14h52.10.550627 +0530,
0.4,400,unexp,62,2,5,space,0.22449480000068434,None,200,1,[1.1832084000052419],[1.1832146999950055],5,2,62,1,253.0309058999992,,253.01543180001318,253.0309058999992,254.03045749999,254.03045749999,254.03045749999,254.26390660001198,space,0.22449480000068434,None,254.26435159999528,254.66349346668383,254.96967120000045,254.96148639998864,254.96191250000265,254.96967120000045,254.96967120000045,254.96967120000045,256.15329260000726,200,1,[1.1832084000052419],[1.1832146999950055],Dhiraj 4,001,2024-11-08_14h51.58.437,Intentional binding,2024.2.2,60.31308522563748,2024-11-08 14h52.10.550627 +0530,
0.4,1000,exp,63,3,5,space,0.27483790001133457,None,200,1,[1.2499785000109114],[1.2499841000244487],5,3,63,7,256.16931090000435,,256.15349419999984,256.16931090000435,257.15271769999526,257.15271769999526,257.16912900001626,257.43614160001744,space,0.27483790001133457,None,257.4365758000058,257.85185416666013,258.15887899999507,258.1505920999916,258.15088180001476,258.15887899999507,258.15887899999507,258.15887899999507,259.4093249000143,200,1,[1.2499785000109114],[1.2499841000244487],Dhiraj 4,001,2024-11-08_14h51.58.437,Intentional binding,2024.2.2,60.31308522563748,2024-11-08 14h52.10.550627 +0530,
0.7,400,unexp,64,4,5,space,1.7800627000106033,None,100,1,[1.7002418999909423],[1.700247600005241],5,4,64,2,259.4251852000016,,259.40953540001647,259.4251852000016,260.4245831000153,260.4245831000153,260.4245831000153,262.2079215999984,space,1.7800627000106033,None,262.2084630000172,262.92349856667374,263.23334999999497,263.2241444000101,263.22458290000213,263.23334999999497,263.23334999999497,263.23334999999497,264.93396719999146,100,1,[1.7002418999909423],[1.700247600005241],Dhiraj 4,001,2024-11-08_14h51.58.437,Intentional binding,2024.2.2,60.31308522563748,2024-11-08 14h52.10.550627 +0530,
0.7,1000,exp,65,5,5,space,0.49594429999706335,None,100,1,[1.1332935999962501],[1.1332988000067417],5,5,65,11,264.949684399995,,264.9341606000089,264.949684399995,265.9492725000018,265.9492725000018,265.9492725000018,266.4497685999959,space,0.49594429999706335,None,266.45023390001734,267.1652458666688,267.48003959999187,267.46291740000015,267.46324859999004,267.48003959999187,267.48003959999187,267.48003959999187,268.6137355999963,100,1,[1.1332935999962501],[1.1332988000067417],Dhiraj 4,001,2024-11-08_14h51.58.437,Intentional binding,2024.2.2,60.31308522563748,2024-11-08 14h52.10.550627 +0530,
0.4,1000,exp,66,6,5,space,0.1700241999933496,None,200,1,[1.2498059999779798],[1.2498109999869484],5,6,66,4,268.6295967999904,,268.61391240000376,268.6295967999904,269.62919120001607,269.62919120001607,269.62919120001607,269.8132128000143,space,0.1700241999933496,None,269.8136771999998,270.2287282666696,270.53204980000737,270.52386449999176,270.52415149999433,270.53204980000737,270.53204980000737,270.53204980000737,271.7822559000051,200,1,[1.2498059999779798],[1.2498109999869484],Dhiraj 4,001,2024-11-08_14h51.58.437,Intentional binding,2024.2.2,60.31308522563748,2024-11-08 14h52.10.550627 +0530,
0.1,1000,exp,67,7,5,space,0.28534170001512393,None,100,1,[1.3500823999929707],[1.3500877000042237],5,7,67,9,271.7984964000061,,271.7824481000134,271.7984964000061,272.79765620001126,272.79765620001126,272.79765620001126,273.0983594999998,space,0.28534170001512393,None,273.09884650001186,273.1975786666774,273.52261819998967,273.49991630000295,273.5002129999921,273.52261819998967,273.52261819998967,273.52261819998967,274.873087999993,100,1,[1.3500823999929707],[1.3500877000042237],Dhiraj 4,001,2024-11-08_14h51.58.437,Intentional binding,2024.2.2,60.31308522563748,2024-11-08 14h52.10.550627 +0530,
0.7,1000,exp ,68,8,5,space,0.3987360000028275,None,100,1,[1.3500217999971937],[1.3500282999884803],5,8,68,8,274.88861870000255,,274.87326329998905,274.88861870000255,275.8881354999903,275.8881354999903,275.8881354999903,276.2884718000132,space,0.3987360000028275,None,276.2888942999998,276.987584666673,277.29483769999933,277.2865238999948,277.2867930000066,277.29483769999933,277.29483769999933,277.29483769999933,278.64536470000166,100,1,[1.3500217999971937],[1.3500282999884803],Dhiraj 4,001,2024-11-08_14h51.58.437,Intentional binding,2024.2.2,60.31308522563748,2024-11-08 14h52.10.550627 +0530,
0.1,400,unexp,69,9,5,space,1.4176203999959398,None,200,1,[1.3834249000065029],[1.3834327000076883],5,9,69,0,278.6611849000037,,278.6455700999941,278.6611849000037,279.6438946000126,279.6438946000126,279.6606829999946,281.0775755000068,space,1.4176203999959398,None,281.07801130000735,281.1766149666839,281.5014070000034,281.47857939999085,281.47888370000874,281.5014070000034,281.5014070000034,281.5014070000034,282.88526559999445,200,1,[1.3834249000065029],[1.3834327000076883],Dhiraj 4,001,2024-11-08_14h51.58.437,Intentional binding,2024.2.2,60.31308522563748,2024-11-08 14h52.10.550627 +0530,
0.7,1000,exp,70,10,5,space,0.3160105000133626,None,100,1,[1.2180120999983046],[1.218019699997967],5,10,70,5,282.9009810000134,,282.88544410001487,282.9009810000134,283.900562099996,283.900562099996,283.900562099996,284.2178445000027,space,0.3160105000133626,None,284.21829560000333,284.9332332666711,285.24203449999914,285.2332344999886,285.2336509000161,285.24203449999914,285.24203449999914,285.24203449999914,286.46055809999234,100,1,[1.2180120999983046],[1.218019699997967],Dhiraj 4,001,2024-11-08_14h51.58.437,Intentional binding,2024.2.2,60.31308522563748,2024-11-08 14h52.10.550627 +0530,
0.1,1000,exp,71,11,5,space,0.3419853000086732,None,200,1,[2.8821159999934025],[2.88212160000694],5,11,71,6,286.47611320001306,,286.4607990999939,286.47611320001306,287.4755382000003,287.4755382000003,287.4755382000003,287.82589360000566,space,0.3419853000086732,None,287.82636629999615,287.92521316666193,288.24063469999237,288.21989649999887,288.220241300005,288.24063469999237,288.24063469999237,288.24063469999237,291.12315830000443,200,1,[2.8821159999934025],[2.88212160000694],Dhiraj 4,001,2024-11-08_14h51.58.437,Intentional binding,2024.2.2,60.31308522563748,2024-11-08 14h52.10.550627 +0530,
0.7,1000,exp,72,0,6,space,0.6414494000200648,None,300,1,[1.283586200006539],[1.2835956999915652],6,0,72,11,291.13914189999923,,291.1233757000009,291.13914189999923,292.1388275999925,292.1388275999925,292.1388275999925,292.7892231000005,space,0.6414494000200648,None,292.78971250000177,293.50453086666334,293.8123379999888,293.8048842000135,293.80518590001157,293.8123379999888,293.8123379999888,293.8123379999888,295.09648880001623,300,1,[1.283586200006539],[1.2835956999915652],Dhiraj 4,001,2024-11-08_14h51.58.437,Intentional binding,2024.2.2,60.31308522563748,2024-11-08 14h52.10.550627 +0530,
0.1,400,unexp,73,1,6,space,0.41374820002238266,None,200,1,[1.4835091000131797],[1.4835186999989673],6,1,73,0,295.1119075999886,,295.0966674000083,295.1119075999886,296.11125630000606,296.11125630000606,296.11125630000606,296.52843599999323,space,0.41374820002238266,None,296.5289214999939,296.62787806668007,296.9319509000052,296.92389939998975,296.92418820000603,296.9319509000052,296.9319509000052,296.9319509000052,298.4159447000129,200,1,[1.4835091000131797],[1.4835186999989673],Dhiraj 4,001,2024-11-08_14h51.58.437,Intentional binding,2024.2.2,60.31308522563748,2024-11-08 14h52.10.550627 +0530,
0.4,1000,exp,74,2,6,space,1.4495689000177663,None,100,1,[1.1334057999774814],[1.1334110999887343],6,2,74,10,298.43150289999903,,298.4161696000083,298.43150289999903,299.43090179999126,299.43090179999126,299.43090179999126,300.8817077999993,space,1.4495689000177663,None,300.88214719999814,301.2969370666581,301.604256599996,301.5958551999938,301.59617750000325,301.604256599996,301.604256599996,301.604256599996,302.7381316999963,100,1,[1.1334057999774814],[1.1334110999887343],Dhiraj 4,001,2024-11-08_14h51.58.437,Intentional binding,2024.2.2,60.31308522563748,2024-11-08 14h52.10.550627 +0530,
0.1,1000,exp,75,3,6,space,0.33180600000196137,None,200,1,[1.4164790000068024],[1.4164842999889515],6,3,75,9,302.75394130000495,,302.7383639999898,302.75394130000495,303.737122999999,303.737122999999,303.75398270000005,304.07085260000895,space,0.33180600000196137,None,304.07127099999343,304.1866698666747,304.49489440000616,304.48654169999645,304.48686540001654,304.49489440000616,304.49489440000616,304.49489440000616,305.911743500008,200,1,[1.4164790000068024],[1.4164842999889515],Dhiraj 4,001,2024-11-08_14h51.58.437,Intentional binding,2024.2.2,60.31308522563748,2024-11-08 14h52.10.550627 +0530,
0.1,1000,exp,76,4,6,space,0.34434360000886954,None,200,1,[1.350116599991452],[1.3501216000004206],6,4,76,6,305.92762639999273,,305.91192350001074,305.92762639999273,306.9275113999902,306.9275113999902,306.9275113999902,307.277375900012,space,0.34434360000886954,None,307.27781550001237,307.3768474666615,307.6841573000129,307.67596690001665,307.676292499993,307.6841573000129,307.6841573000129,307.6841573000129,309.0346636000031,200,1,[1.350116599991452],[1.3501216000004206],Dhiraj 4,001,2024-11-08_14h51.58.437,Intentional binding,2024.2.2,60.31308522563748,2024-11-08 14h52.10.550627 +0530,
0.1,1000,exp,77,5,6,space,0.33535540002048947,None,300,1,[1.5167494999768678],[1.5167550999904051],6,5,77,3,309.0507293000119,,309.0348429000005,309.0507293000119,310.049829399999,310.049829399999,310.049829399999,310.4008049000113,space,0.33535540002048947,None,310.40125779999653,310.5163976666556,310.81976230000146,310.8118897000095,310.8121850999887,310.81976230000146,310.81976230000146,310.81976230000146,312.33696970000165,300,1,[1.5167494999768678],[1.5167550999904051],Dhiraj 4,001,2024-11-08_14h51.58.437,Intentional binding,2024.2.2,60.31308522563748,2024-11-08 14h52.10.550627 +0530,
0.7,1000,exp ,78,6,6,space,0.34908710001036525,None,200,1,[1.233100999990711],[1.2331056999973953],6,6,78,8,312.3526377000089,,312.3371734000102,312.3526377000089,313.3522059000097,313.3522059000097,313.3522059000097,313.7027124000015,space,0.34908710001036525,None,313.7031980000029,314.4020130666652,314.7265149000159,314.7056530000118,314.7059442999889,314.7265149000159,314.7265149000159,314.7265149000159,315.9600322000042,200,1,[1.233100999990711],[1.2331056999973953],Dhiraj 4,001,2024-11-08_14h51.58.437,Intentional binding,2024.2.2,60.31308522563748,2024-11-08 14h52.10.550627 +0530,
0.7,400,unexp,79,7,6,space,0.20737970000482164,None,100,1,[1.2167170000029728],[1.2167244000011124],6,7,79,2,315.97606069999165,,315.96020160001353,315.97606069999165,316.9588470000017,316.9588470000017,316.97548550000647,317.1760346000083,space,0.20737970000482164,None,317.17662350001046,317.8751194666586,318.18008530000225,318.17182419999153,318.1721127000055,318.18008530000225,318.18008530000225,318.18008530000225,319.39721200001077,100,1,[1.2167170000029728],[1.2167244000011124],Dhiraj 4,001,2024-11-08_14h51.58.437,Intentional binding,2024.2.2,60.31308522563748,2024-11-08 14h52.10.550627 +0530,
0.4,1000,exp,80,8,6,space,0.22753959998954087,None,200,1,[1.251607900019735],[1.2516135000041686],6,8,80,4,319.4130215999903,,319.3973860999977,319.4130215999903,320.3956948000123,320.3956948000123,320.4128864000086,320.6297273999953,space,0.22753959998954087,None,320.63018989999546,321.0288012666608,321.33754249999765,321.32926020000014,321.32955039999797,321.33754249999765,321.33754249999765,321.33754249999765,322.5895343000011,200,1,[1.251607900019735],[1.2516135000041686],Dhiraj 4,001,2024-11-08_14h51.58.437,Intentional binding,2024.2.2,60.31308522563748,2024-11-08 14h52.10.550627 +0530,
0.4,400,unexp,81,9,6,space,0.2501535000046715,None,200,1,[1.2657449999824166],[1.2657512000005227],6,9,81,1,322.60514500000863,,322.5897202999913,322.60514500000863,323.60443480001413,323.60443480001413,323.60443480001413,323.8719986999931,space,0.2501535000046715,None,323.8726001000032,324.28752956667836,324.6030783999886,324.58273900000495,324.5830452000082,324.6030783999886,324.6030783999886,324.6030783999886,325.869345300016,200,1,[1.2657449999824166],[1.2657512000005227],Dhiraj 4,001,2024-11-08_14h51.58.437,Intentional binding,2024.2.2,60.31308522563748,2024-11-08 14h52.10.550627 +0530,
0.7,1000,exp,82,10,6,space,0.25274730002274737,None,200,1,[1.1333278000238352],[1.1333344000158831],6,10,82,5,325.88512150000315,,325.86953789999825,325.88512150000315,326.88479909999296,326.88479909999296,326.88479909999296,327.15261530000134,space,0.25274730002274737,None,327.1531024000142,327.8676438666628,328.17520800000057,328.16659969999455,328.1668842000072,328.17520800000057,328.17520800000057,328.17520800000057,329.309064400004,200,1,[1.1333278000238352],[1.1333344000158831],Dhiraj 4,001,2024-11-08_14h51.58.437,Intentional binding,2024.2.2,60.31308522563748,2024-11-08 14h52.10.550627 +0530,
0.4,1000,exp,83,11,6,space,0.2416551999922376,None,200,1,[1.2502323999942746],[1.250237999978708],6,11,83,7,329.32484960000147,,329.3092828000081,329.32484960000147,330.3248852000106,330.3248852000106,330.3248852000106,330.57491490000393,space,0.2416551999922376,None,330.575454100006,330.9740582666748,331.27916400000686,331.2708718999929,331.2711565000063,331.27916400000686,331.27916400000686,331.27916400000686,332.529778600001,200,1,[1.2502323999942746],[1.250237999978708],Dhiraj 4,001,2024-11-08_14h51.58.437,Intentional binding,2024.2.2,60.31308522563748,2024-11-08 14h52.10.550627 +0530,
0.1,1000,exp,84,0,7,space,0.47930380000616424,None,100,1,[1.301608200010378],[1.3016185000014957],7,0,84,6,332.5455551999912,,332.5299698000017,332.5455551999912,333.54497869999614,333.54497869999614,333.54497869999614,334.0287183999899,space,0.47930380000616424,None,334.02919319999637,334.12799636667864,334.436431500013,334.42825900000753,334.4285695000144,334.436431500013,334.436431500013,334.436431500013,335.7385956000071,100,1,[1.301608200010378],[1.3016185000014957],Dhiraj 4,001,2024-11-08_14h51.58.437,Intentional binding,2024.2.2,60.31308522563748,2024-11-08 14h52.10.550627 +0530,
0.4,1000,exp,85,1,7,space,0.3205248999875039,None,100,1,[1.0668528000242077],[1.0668587000109255],7,1,85,10,335.75410479999846,,335.7388421999931,335.75410479999846,336.75391160001163,336.75391160001163,336.75391160001163,337.08726749999914,space,0.3205248999875039,None,337.0878264000057,337.4864677666667,337.8015116000024,337.7879348999995,337.7882498000108,337.8015116000024,337.8015116000024,337.8015116000024,338.8687492000172,100,1,[1.0668528000242077],[1.0668587000109255],Dhiraj 4,001,2024-11-08_14h51.58.437,Intentional binding,2024.2.2,60.31308522563748,2024-11-08 14h52.10.550627 +0530,
0.7,1000,exp,86,2,7,space,0.30773080000653863,None,100,1,[1.267712600005325],[1.2677175999851897],7,2,86,11,338.8844528000045,,338.8689403999888,338.8844528000045,339.8843898999912,339.8843898999912,339.8843898999912,340.2011360999895,space,0.30773080000653863,None,340.2016867999919,340.91730726667834,341.2205314000021,341.21194589999504,341.2122604000033,341.2205314000021,341.2205314000021,341.2205314000021,342.48864620001405,100,1,[1.267712600005325],[1.2677175999851897],Dhiraj 4,001,2024-11-08_14h51.58.437,Intentional binding,2024.2.2,60.31308522563748,2024-11-08 14h52.10.550627 +0530,
0.7,1000,exp,87,3,7,space,0.4478203999751713,None,300,1,[1.182729099993594],[1.1827340000018012],7,3,87,5,342.50348000001395,,342.48881879998953,342.50348000001395,343.5027865000011,343.5027865000011,343.5027865000011,343.95318640000187,space,0.4478203999751713,None,343.95360509998864,344.65299606667054,344.97792410000693,344.9565956000006,344.95693119999487,344.97792410000693,344.97792410000693,344.97792410000693,346.1610828000121,300,1,[1.182729099993594],[1.1827340000018012],Dhiraj 4,001,2024-11-08_14h51.58.437,Intentional binding,2024.2.2,60.31308522563748,2024-11-08 14h52.10.550627 +0530,
0.4,1000,exp,88,4,7,space,0.9130178999912459,None,200 ,1,[9.746245399990585],[9.746251200005645],7,4,88,4,346.17685379998875,,346.1612523999938,346.17685379998875,347.17631129999063,347.17631129999063,347.17631129999063,348.0929071000137,space,0.9130178999912459,None,348.09334469999885,348.49294896665765,348.81727309999405,348.7959472000075,348.7962608000089,348.81727309999405,348.81727309999405,348.81727309999405,358.5640168999962,200 ,1,[9.746245399990585],[9.746251200005645],Dhiraj 4,001,2024-11-08_14h51.58.437,Intentional binding,2024.2.2,60.31308522563748,2024-11-08 14h52.10.550627 +0530,
0.4,1000,exp,89,5,7,space,0.2823318000009749,None,200,1,[6.731014099990716],[6.73102179999114],7,5,89,7,358.57979799999157,,358.56420670001535,358.57979799999157,359.5792825999961,359.5792825999961,359.5792825999961,359.86304080000264,space,0.2823318000009749,None,359.86350860001403,360.2623775666618,360.5704853000061,360.56149260001257,360.5618315000029,360.5704853000061,360.5704853000061,360.5704853000061,367.3019052000018,200,1,[6.731014099990716],[6.73102179999114],Dhiraj 4,001,2024-11-08_14h51.58.437,Intentional binding,2024.2.2,60.31308522563748,2024-11-08 14h52.10.550627 +0530,
0.4,400,unexp,90,6,7,space,1.0755838000040967,None,200,1,[1.43258959997911],[1.432595999998739],7,6,90,1,367.3176375000039,,367.30208329999004,367.3176375000039,368.3170661999902,368.3170661999902,368.3170661999902,369.40080679999664,space,1.0755838000040967,None,369.4012700000021,369.81660546668377,370.14211509999586,370.1187106000143,370.11905559999286,370.14211509999586,370.14211509999586,370.14211509999586,371.5751350999926,200,1,[1.43258959997911],[1.432595999998739],Dhiraj 4,001,2024-11-08_14h51.58.437,Intentional binding,2024.2.2,60.31308522563748,2024-11-08 14h52.10.550627 +0530,
0.7,400,unexp,91,7,7,space,0.29484670000965707,None,100,1,[1.034099700016668],[1.0341050999995787],7,7,91,2,371.5908982999972,,371.575319399999,371.5908982999972,372.59040380001534,372.59040380001534,372.59040380001534,372.89061269999365,space,0.29484670000965707,None,372.89108699999633,373.59031186666493,373.8991750999994,373.8906265000114,373.8909956999996,373.8991750999994,373.8991750999994,373.8991750999994,374.9336838000163,100,1,[1.034099700016668],[1.0341050999995787],Dhiraj 4,001,2024-11-08_14h51.58.437,Intentional binding,2024.2.2,60.31308522563748,2024-11-08 14h52.10.550627 +0530,
0.7,1000,exp ,92,8,7,space,0.40592959997593425,None,100,1,[1.3164665000222158],[1.316471800004365],7,8,92,8,374.9495256000082,,374.93386889999965,374.9495256000082,375.94879100000253,375.94879100000253,375.94879100000253,376.36588960001245,space,0.40592959997593425,None,376.3663884999987,377.06493566665836,377.379889200005,377.36132769999676,377.3616319000139,377.379889200005,377.379889200005,377.379889200005,378.69675530001405,100,1,[1.3164665000222158],[1.316471800004365],Dhiraj 4,001,2024-11-08_14h51.58.437,Intentional binding,2024.2.2,60.31308522563748,2024-11-08 14h52.10.550627 +0530,
0.1,1000,exp,93,9,7,space,0.2550294999964535,None,200,1,[1.4839571999909822],[1.4839636999822687],7,9,93,9,378.7128704999923,,378.69693229999393,378.7128704999923,379.7121885000088,379.7121885000088,379.7121885000088,379.97927310000523,space,0.2550294999964535,None,379.97969300000113,380.07880936668175,380.38811649999116,380.37990689999424,380.3802076000138,380.38811649999116,380.38811649999116,380.38811649999116,381.8725303999963,200,1,[1.4839571999909822],[1.4839636999822687],Dhiraj 4,001,2024-11-08_14h51.58.437,Intentional binding,2024.2.2,60.31308522563748,2024-11-08 14h52.10.550627 +0530,
0.1,400,unexp,94,10,7,space,0.23290129998349585,None,200,1,[1.5668766000017058],[1.5668837999983225],7,10,94,0,381.8882065000071,,381.87273760000244,381.8882065000071,382.8881457000098,382.8881457000098,382.8881457000098,383.1221550999908,space,0.23290129998349585,None,383.12267320000683,383.23720366668226,383.5521685999993,383.5372944000119,383.5375886000111,383.5521685999993,383.5521685999993,383.5521685999993,385.1194831999892,200,1,[1.5668766000017058],[1.5668837999983225],Dhiraj 4,001,2024-11-08_14h51.58.437,Intentional binding,2024.2.2,60.31308522563748,2024-11-08 14h52.10.550627 +0530,
0.1,1000,exp,95,11,7,space,0.24126819998491555,None,200,1,[1.3834436000033747],[1.3834490999870468],7,11,95,3,385.1349862999923,,385.1196937999921,385.1349862999923,386.1348738000088,386.1348738000088,386.1348738000088,386.3852579999948,space,0.24126819998491555,None,386.38567540000076,386.48440716666323,386.7883092999982,386.77993660001084,386.78022889999556,386.7883092999982,386.7883092999982,386.7883092999982,388.1721574999974,200,1,[1.3834436000033747],[1.3834490999870468],Dhiraj 4,001,2024-11-08_14h51.58.437,Intentional binding,2024.2.2,60.31308522563748,2024-11-08 14h52.10.550627 +0530,
0.1,1000,exp,96,0,8,space,0.27908899998874404,None,300,1,[1.350054899987299],[1.3500699999858625],8,0,96,3,388.18808180000633,,388.17234059999464,388.18808180000633,389.18715270000394,389.18715270000394,389.18715270000394,389.47135810001055,space,0.27908899998874404,None,389.4718467000057,389.57055886666444,389.8954384000099,389.8732591000153,389.8735644000117,389.8954384000099,389.8954384000099,389.8954384000099,391.2459220000019,300,1,[1.350054899987299],[1.3500699999858625],Dhiraj 4,001,2024-11-08_14h51.58.437,Intentional binding,2024.2.2,60.31308522563748,2024-11-08 14h52.10.550627 +0530,
0.1,1000,exp,97,1,8,space,0.3783351000165567,None,100,1,[1.283197700016899],[1.283203400002094],8,1,97,6,391.2615320000041,,391.2460972999979,391.2615320000041,392.26102579999133,392.26102579999133,392.26102579999133,392.644882099994,space,0.3783351000165567,None,392.64540300000226,392.74406636666777,393.0505099000002,393.0412864999962,393.04179630000726,393.0505099000002,393.0505099000002,393.0505099000002,394.33421269999235,100,1,[1.283197700016899],[1.283203400002094],Dhiraj 4,001,2024-11-08_14h51.58.437,Intentional binding,2024.2.2,60.31308522563748,2024-11-08 14h52.10.550627 +0530,
0.4,1000,exp,98,2,8,space,0.25518320000264794,None,200,1,[1.2516875000146683],[1.2516967999981716],8,2,98,10,394.3501290999993,,394.3343928999966,394.3501290999993,395.34945400001016,395.34945400001016,395.34945400001016,395.6167451000074,space,0.25518320000264794,None,395.617276200006,396.01587576666884,396.32427450001705,396.31587960000616,396.3161666000087,396.32427450001705,396.32427450001705,396.32427450001705,397.5765148999926,200,1,[1.2516875000146683],[1.2516967999981716],Dhiraj 4,001,2024-11-08_14h51.58.437,Intentional binding,2024.2.2,60.31308522563748,2024-11-08 14h52.10.550627 +0530,
0.1,400,unexp,99,3,8,space,0.24781430000439286,None,100,1,[1.2165213999978732],[1.2165267999807838],8,3,99,0,397.5918735000014,,397.5767281000153,397.5918735000014,398.59138250001706,398.59138250001706,398.59138250001706,398.84190210001543,space,0.24781430000439286,None,398.8424018000078,398.9411248666622,399.25616270001046,399.23854320001556,399.23883190000197,399.25616270001046,399.25616270001046,399.25616270001046,400.4731657000084,100,1,[1.2165213999978732],[1.2165267999807838],Dhiraj 4,001,2024-11-08_14h51.58.437,Intentional binding,2024.2.2,60.31308522563748,2024-11-08 14h52.10.550627 +0530,
0.4,400,unexp,100,4,8,space,0.31286200002068654,None,100,1,[1.200280399993062],[1.2002862000081223],8,4,100,1,400.4890690000029,,400.47335159999784,400.4890690000029,401.4887327000033,401.4887327000033,401.4887327000033,401.8058679999958,space,0.31286200002068654,None,401.80633469999884,402.2215793666585,402.54635650001,402.5239596000174,402.5243780000019,402.54635650001,402.54635650001,402.54635650001,403.74703769999905,100,1,[1.200280399993062],[1.2002862000081223],Dhiraj 4,001,2024-11-08_14h51.58.437,Intentional binding,2024.2.2,60.31308522563748,2024-11-08 14h52.10.550627 +0530,
0.7,1000,exp ,101,5,8,space,0.29306300001917407,None,100,1,[1.0998206000076607],[1.0998261999920942],8,5,101,8,403.76266840001335,,403.7472235999885,403.76266840001335,404.76206450001337,404.76206450001337,404.76206450001337,405.0625654000032,space,0.29306300001917407,None,405.06309810001403,405.7617194666566,406.086589500017,406.0660665000032,406.0663586000155,406.086589500017,406.086589500017,406.086589500017,407.1869473000115,100,1,[1.0998206000076607],[1.0998261999920942],Dhiraj 4,001,2024-11-08_14h51.58.437,Intentional binding,2024.2.2,60.31308522563748,2024-11-08 14h52.10.550627 +0530,
0.4,1000,exp,102,6,8,space,0.31379739998374134,None,200,1,[1.2665961000020616],[1.2666019000171218],8,6,102,7,407.2029254999943,,407.1871500000125,407.2029254999943,408.18607709999196,408.18607709999196,408.2023404999927,408.50265340000624,space,0.31379739998374134,None,408.5032072000031,408.9024836666688,409.210024400003,409.2014346999931,409.20175539999036,409.210024400003,409.210024400003,409.210024400003,410.47708959999727,200,1,[1.2665961000020616],[1.2666019000171218],Dhiraj 4,001,2024-11-08_14h51.58.437,Intentional binding,2024.2.2,60.31308522563748,2024-11-08 14h52.10.550627 +0530,
0.4,1000,exp,103,7,8,space,0.3003727000032086,None,200,1,[1.1831791999866255],[1.1831840999948326],8,7,103,4,410.49300439999206,,410.47728839999763,410.49300439999206,411.4924309999915,411.4924309999915,411.4924309999915,411.7942195000069,space,0.3003727000032086,None,411.7946433000034,412.2093125666763,412.51649830001406,412.5079814000055,412.50827779999236,412.51649830001406,412.51649830001406,412.51649830001406,413.7000922000152,200,1,[1.1831791999866255],[1.1831840999948326],Dhiraj 4,001,2024-11-08_14h51.58.437,Intentional binding,2024.2.2,60.31308522563748,2024-11-08 14h52.10.550627 +0530,
0.7,1000,exp,104,8,8,space,0.38832309999270365,None,300,1,[1.6003246000036597],[1.600334400020074],8,8,104,5,413.716210899991,,413.7002810999984,413.716210899991,414.6990069000167,414.6990069000167,414.7159055999946,415.0995066000032,space,0.38832309999270365,None,415.10002350001014,415.81511156665897,416.12163720000535,416.113276899996,416.1135656000115,416.12163720000535,416.12163720000535,416.12163720000535,417.7224264999968,300,1,[1.6003246000036597],[1.600334400020074],Dhiraj 4,001,2024-11-08_14h51.58.437,Intentional binding,2024.2.2,60.31308522563748,2024-11-08 14h52.10.550627 +0530,
0.7,400,unexp,105,9,8,space,0.4369970999832731,None,100,1,[1.3333941999881063],[1.3334018999885302],8,9,105,2,417.7378146999981,,417.7226047000149,417.7378146999981,418.73750469999504,418.73750469999504,418.73750469999504,419.18774080000003,space,0.4369970999832731,None,419.1883377000049,419.8872063666679,420.2116332000005,420.1879672000068,420.1882648000028,420.2116332000005,420.2116332000005,420.2116332000005,421.5456649000116,100,1,[1.3333941999881063],[1.3334018999885302],Dhiraj 4,001,2024-11-08_14h51.58.437,Intentional binding,2024.2.2,60.31308522563748,2024-11-08 14h52.10.550627 +0530,
0.1,1000,exp,106,10,8,space,0.29822260001674294,None,200,1,[1.5166409999947064],[1.5166468000097666],8,10,106,9,421.56114130001515,,421.5458399000054,421.56114130001515,422.56062850001035,422.56062850001035,422.56062850001035,422.8608984000166,space,0.29822260001674294,None,422.86132200001157,422.9605708666825,423.268319099996,423.2599906999967,423.2602812999976,423.268319099996,423.268319099996,423.268319099996,424.7854359000048,200,1,[1.5166409999947064],[1.5166468000097666],Dhiraj 4,001,2024-11-08_14h51.58.437,Intentional binding,2024.2.2,60.31308522563748,2024-11-08 14h52.10.550627 +0530,
0.7,1000,exp,107,11,8,space,1.076207100006286,None,200 ,1,[1.5167430999863427],[1.5167485999991186],8,11,107,11,424.8011559000006,,424.7856302,424.8011559000006,425.80060290000984,425.80060290000984,425.80060290000984,426.88418570000795,space,1.076207100006286,None,426.88464750000276,427.5832277666816,427.887017800007,427.87896249999176,427.87925329999416,427.887017800007,427.887017800007,427.887017800007,429.4041739999957,200 ,1,[1.5167430999863427],[1.5167485999991186],Dhiraj 4,001,2024-11-08_14h51.58.437,Intentional binding,2024.2.2,60.31308522563748,2024-11-08 14h52.10.550627 +0530,
0.1,1000,exp,108,0,9,space,0.21687530001509003,None,200,1,[1.3019570000178646],[1.3019675000105053],9,0,108,9,429.41994009999325,,429.4043646999926,429.41994009999325,430.4193768000114,430.4193768000114,430.4193768000114,430.65329469999415,space,0.21687530001509003,None,430.65372750000097,430.7526096666736,431.0611934000044,431.0528118000075,431.053095100011,431.0611934000044,431.0611934000044,431.0611934000044,432.36383499999647,200,1,[1.3019570000178646],[1.3019675000105053],Dhiraj 4,001,2024-11-08_14h51.58.437,Intentional binding,2024.2.2,60.31308522563748,2024-11-08 14h52.10.550627 +0530,
0.4,400,unexp,109,1,9,space,0.24216330001945607,None,300,1,[1.2668096000270452],[1.2668178000021726],9,1,109,1,432.37880649999715,,432.3640769000049,432.37880649999715,433.37810870000976,433.37810870000976,433.37810870000976,433.628649899998,space,0.24216330001945607,None,433.6291344999918,434.0278196666661,434.3426543000096,434.32802499999525,434.32831710000755,434.3426543000096,434.3426543000096,434.3426543000096,435.6098539000086,300,1,[1.2668096000270452],[1.2668178000021726],Dhiraj 4,001,2024-11-08_14h51.58.437,Intentional binding,2024.2.2,60.31308522563748,2024-11-08 14h52.10.550627 +0530,
0.7,400,unexp,110,2,9,space,0.19279549998464063,None,300,1,[0.9833229999931064],[0.9833295000134967],9,2,110,2,435.62553489999846,,435.6100359999982,435.62553489999846,436.6250205000106,436.6250205000106,436.6250205000106,436.8259100000141,space,0.19279549998464063,None,436.82635419999133,437.5418703666694,437.84939920000033,437.8413288000156,437.8416234999895,437.84939920000033,437.84939920000033,437.84939920000033,438.83324269999866,300,1,[0.9833229999931064],[0.9833295000134967],Dhiraj 4,001,2024-11-08_14h51.58.437,Intentional binding,2024.2.2,60.31308522563748,2024-11-08 14h52.10.550627 +0530,
0.4,1000,exp,111,3,9,space,0.2952819000056479,None,200,1,[1.3171812999935355],[1.3171894999977667],9,3,111,10,438.849251800013,,438.8334554999892,438.849251800013,439.84839560001274,439.84839560001274,439.84839560001274,440.1490948999999,space,0.2952819000056479,None,440.149596400006,440.5482494666687,440.8577656999987,440.849675800011,440.8499718999956,440.8577656999987,440.8577656999987,440.8577656999987,442.17538480000803,200,1,[1.3171812999935355],[1.3171894999977667],Dhiraj 4,001,2024-11-08_14h51.58.437,Intentional binding,2024.2.2,60.31308522563748,2024-11-08 14h52.10.550627 +0530,
0.7,1000,exp,112,4,9,space,0.49863129999721423,None,100,1,[1.1329629000101704],[1.132972499995958],9,4,112,11,442.1912616000045,,442.1755776999926,442.1912616000045,443.1905119000003,443.1905119000003,443.1905119000003,443.69096599999466,space,0.49863129999721423,None,443.6914838000084,444.40676906667454,444.72207920000073,444.70706320001045,444.7073606000049,444.72207920000073,444.72207920000073,444.72207920000073,445.85543009999674,100,1,[1.1329629000101704],[1.132972499995958],Dhiraj 4,001,2024-11-08_14h51.58.437,Intentional binding,2024.2.2,60.31308522563748,2024-11-08 14h52.10.550627 +0530,
0.7,1000,exp,113,5,9,space,0.2693808999902103,None,100,1,[0.9837965999904554],[0.9838048999954481],9,5,113,5,445.87104630001704,,445.85560450001503,445.87104630001704,446.8710393999936,446.8710393999936,446.8710393999936,447.15471850000904,space,0.2693808999902103,None,447.15514429999166,447.8701607666774,448.17484039999545,448.166587100015,448.16687290000846,448.17484039999545,448.17484039999545,448.17484039999545,449.1590392999933,100,1,[0.9837965999904554],[0.9838048999954481],Dhiraj 4,001,2024-11-08_14h51.58.437,Intentional binding,2024.2.2,60.31308522563748,2024-11-08 14h52.10.550627 +0530,
0.7,1000,exp ,114,6,9,space,0.3683100999915041,None,200,1,[1.0335033999872394],[1.0335114999907091],9,6,114,8,449.1746453999949,,449.15921489999164,449.1746453999949,450.17413299999316,450.17413299999316,450.17413299999316,450.55774660001043,space,0.3683100999915041,None,450.5582732000039,451.25686426667767,451.5818364000006,451.55862860000343,451.55893639998976,451.5818364000006,451.5818364000006,451.5818364000006,452.6158825000166,200,1,[1.0335033999872394],[1.0335114999907091],Dhiraj 4,001,2024-11-08_14h51.58.437,Intentional binding,2024.2.2,60.31308522563748,2024-11-08 14h52.10.550627 +0530,
0.4,1000,exp,115,7,9,space,0.2444919999979902,None,200,1,[1.2999655000166968],[1.2999712000018917],9,7,115,7,452.63151820001076,,452.6161015999969,452.63151820001076,453.6310907000152,453.6310907000152,453.6310907000152,453.8816937000083,space,0.2444919999979902,None,453.8821586999984,454.29735596667547,454.60744089999935,454.5990208000003,454.5993168000132,454.60744089999935,454.60744089999935,454.60744089999935,455.9077847000153,200,1,[1.2999655000166968],[1.2999712000018917],Dhiraj 4,001,2024-11-08_14h51.58.437,Intentional binding,2024.2.2,60.31308522563748,2024-11-08 14h52.10.550627 +0530,
0.1,1000,exp,116,8,9,space,0.35640760001842864,None,100,1,[1.316401100018993],[1.3164072000072338],9,8,116,6,455.92337460001,,455.9079746000061,455.92337460001,456.9231410000066,456.9231410000066,456.9231410000066,457.290082099993,space,0.35640760001842864,None,457.2905582000094,457.3892174666728,457.70425320000504,457.6923489999899,457.6926800000074,457.70425320000504,457.70425320000504,457.70425320000504,459.021192300017,100,1,[1.316401100018993],[1.3164072000072338],Dhiraj 4,001,2024-11-08_14h51.58.437,Intentional binding,2024.2.2,60.31308522563748,2024-11-08 14h52.10.550627 +0530,
0.1,1000,exp,117,9,9,space,0.3165222999814432,None,200,1,[1.4332170000125188],[1.4332223000237718],9,9,117,3,459.0370075000101,,459.0214177000162,459.0370075000101,460.03647849999834,460.03647849999834,460.03647849999834,460.35440030001337,space,0.3165222999814432,None,460.3548271000036,460.46967676666486,460.77202629999374,460.7639698999992,460.7642649000045,460.77202629999374,460.77202629999374,460.77202629999374,462.20561330000055,200,1,[1.4332170000125188],[1.4332223000237718],Dhiraj 4,001,2024-11-08_14h51.58.437,Intentional binding,2024.2.2,60.31308522563748,2024-11-08 14h52.10.550627 +0530,
0.4,1000,exp,118,10,9,space,0.5018046000041068,None,200,1,[1.4998424999939743],[1.499848799983738],9,10,118,4,462.22158780001337,,462.2057882999943,462.22158780001337,463.2044237999944,463.2044237999944,463.22108540000045,463.72170090000145,space,0.5018046000041068,None,463.7222563000105,464.1376878666672,464.44161850001547,464.43338090000907,464.43366969999624,464.44161850001547,464.44161850001547,464.44161850001547,465.94200529999216,200,1,[1.4998424999939743],[1.499848799983738],Dhiraj 4,001,2024-11-08_14h51.58.437,Intentional binding,2024.2.2,60.31308522563748,2024-11-08 14h52.10.550627 +0530,
0.1,400,unexp,119,11,9,space,0.42320339998696,None,300,1,[1.2167128000000957],[1.2167190000182018],9,11,119,0,465.9578312000085,,465.9422323000035,465.9578312000085,466.95766109999386,466.95766109999386,466.95766109999386,467.3911511999904,space,0.42320339998696,None,467.391698499996,467.4904381666604,467.8152664999943,467.7936575000058,467.79395510000177,467.8152664999943,467.8152664999943,467.8152664999943,469.0323781000043,300,1,[1.2167128000000957],[1.2167190000182018],Dhiraj 4,001,2024-11-08_14h51.58.437,Intentional binding,2024.2.2,60.31308522563748,2024-11-08 14h52.10.550627 +0530,
0.7,1000,exp ,120,0,10,space,0.3089318999846,None,200,1,[1.1832960000028834],[1.1833015000156593],10,0,120,8,469.0481844000169,,469.03258279999136,469.0481844000169,470.04763400001684,470.04763400001684,470.04763400001684,470.3651344999962,space,0.3089318999846,None,470.36555970000336,471.08105256667864,471.3858706000028,471.3773652999953,471.3776957000082,471.3858706000028,471.3858706000028,471.3858706000028,472.5696294000081,200,1,[1.1832960000028834],[1.1833015000156593],Dhiraj 4,001,2024-11-08_14h51.58.437,Intentional binding,2024.2.2,60.31308522563748,2024-11-08 14h52.10.550627 +0530,
0.7,1000,exp,121,1,10,space,0.3516237000003457,None,100,1,[1.2680676000018138],[1.26807709998684],10,1,121,11,472.58548750000773,,472.5698306999984,472.58548750000773,473.56871029999456,473.56871029999456,473.58536970001296,473.9357336999965,space,0.3516237000003457,None,473.93622020000475,474.65133786667525,474.95994279999286,474.9510480000172,474.9514751000097,474.95994279999286,474.95994279999286,474.95994279999286,476.22856360001606,100,1,[1.2680676000018138],[1.26807709998684],Dhiraj 4,001,2024-11-08_14h51.58.437,Intentional binding,2024.2.2,60.31308522563748,2024-11-08 14h52.10.550627 +0530,
0.1,1000,exp,122,2,10,,,,,,,,10,2,122,6,476.2438747000124,,476.228815200011,476.2438747000124,,,,,,,,,,,,,,,,,,,,,,,,,,,,
