delay,freq,condition,thisN,thisTrialN,thisRepN,key_resp.keys,key_resp.rt,key_resp.duration,textbox.text,button.numClicks,button.timesOn,button.timesOff,trials.thisRepN,trials.thisTrialN,trials.thisN,trials.thisIndex,thisRow.t,notes,trial.started,polygon.started,polygon_2.started,key_resp.started,polygon.stopped,trial.stopped,trials.key_resp.keys,trials.key_resp.rt,trials.key_resp.duration,beeb.started,sound_1.started,sound_1.stopped,beeb.stopped,response.started,text.started,textbox.started,button.started,response.stopped,trials.textbox.text,trials.button.numClicks,trials.button.timesOn,trials.button.timesOff,participant,session,date,expName,psychopyVersion,frameRate,expStart,
0.1,1000,exp,0,0,0,space,17.815413500007708,None,200,1,[5.16447399999015],[5.164488000009442],0,0,0,3,0.08363169999211095,,0.06749960000161082,0.08363169999211095,1.0005554000090342,1.0005554000090342,1.084345300012501,18.832631400000537,space,17.815413500007708,None,18.833872899995185,18.94306036667355,19.27031779999379,19.24528649999411,19.246181800001068,19.27031779999379,19.27031779999379,19.27031779999379,24.435679599992,200,1,[5.16447399999015],[5.164488000009442],933458,001,2024-11-08_14h24.13.576,Intentional binding,2024.2.2,60.134171362712756,2024-11-08 14h24.22.450074 +0530,
0.4,400,unexp,1,1,0,space,1.3476767000101972,None,200,1,[4.381682900013402],[4.381696800002828],0,1,1,1,24.450677199987695,,24.436042499990435,24.450677199987695,25.450111799989827,25.450111799989827,25.450111799989827,26.800854100001743,space,1.3476767000101972,None,26.801628100016387,27.215717666669903,27.54157299999497,27.512191399990115,27.512712199997623,27.54157299999497,27.54157299999497,27.54157299999497,31.924270399991656,200,1,[4.381682900013402],[4.381696800002828],933458,001,2024-11-08_14h24.13.576,Intentional binding,2024.2.2,60.134171362712756,2024-11-08 14h24.22.450074 +0530,
0.7,1000,exp,2,2,0,space,1.215320299990708,None,300,1,[2.054531000001589],[2.054545599996345],0,2,2,11,31.93894829999772,,31.924678500014124,31.93894829999772,32.9384679000068,32.9384679000068,32.9384679000068,34.1559785999998,space,1.215320299990708,None,34.15673869999591,34.871509766675686,35.19633529998828,35.17070789998979,35.17120919999434,35.19633529998828,35.19633529998828,35.19633529998828,37.251737100014,300,1,[2.054531000001589],[2.054545599996345],933458,001,2024-11-08_14h24.13.576,Intentional binding,2024.2.2,60.134171362712756,2024-11-08 14h24.22.450074 +0530,
0.1,1000,exp,3,3,0,space,1.2333905999839772,None,200,1,[1.882486999995308],[1.8825037000060547],0,3,3,6,37.26679319998948,,37.252126900013536,37.26679319998948,38.26601980000851,38.26601980000851,38.26601980000851,39.516895100008696,space,1.2333905999839772,None,39.51765359999263,39.63255306665475,39.94168009998975,39.92805109999608,39.92853999999352,39.94168009998975,39.94168009998975,39.94168009998975,41.82507930000429,200,1,[1.882486999995308],[1.8825037000060547],933458,001,2024-11-08_14h24.13.576,Intentional binding,2024.2.2,60.134171362712756,2024-11-08 14h24.22.450074 +0530,
0.7,1000,exp ,4,4,0,space,1.0492698000161909,None,200,1,[2.150075100013055],[2.150089900009334],0,4,4,8,41.839748400001554,,41.825505000015255,41.839748400001554,42.83935230001225,42.83935230001225,42.83935230001225,43.890511800011154,space,1.0492698000161909,None,43.891319899994414,44.60579006668219,44.929863500001375,44.90951480000513,44.91001190000679,44.929863500001375,44.929863500001375,44.929863500001375,47.08085500000743,200,1,[2.150075100013055],[2.150089900009334],933458,001,2024-11-08_14h24.13.576,Intentional binding,2024.2.2,60.134171362712756,2024-11-08 14h24.22.450074 +0530,
0.4,1000,exp,5,5,0,space,0.3027927999792155,None,100,1,[1.874461200000951],[1.8744765000010375],0,5,5,4,47.095823500014376,,47.081285299995216,47.095823500014376,48.095690899994224,48.095690899994224,48.095690899994224,48.41316930000903,space,0.3027927999792155,None,48.41394759999821,48.82825026667366,49.15345179999713,49.12875880001229,49.1292250000115,49.15345179999713,49.15345179999713,49.15345179999713,51.028882100014016,100,1,[1.874461200000951],[1.8744765000010375],933458,001,2024-11-08_14h24.13.576,Intentional binding,2024.2.2,60.134171362712756,2024-11-08 14h24.22.450074 +0530,
0.1,400,unexp,6,6,0,space,0.2639472000009846,None,200,1,[2.2327500999963377],[2.2327637000125833],0,6,6,0,51.04397940001218,,51.02929130001576,51.04397940001218,52.04318549999152,52.04318549999152,52.04318549999152,52.31090069998754,space,0.2639472000009846,None,52.31177590001607,52.426446266679946,52.75176780001493,52.727922299993224,52.72842379999929,52.75176780001493,52.75176780001493,52.75176780001493,54.98535800000536,200,1,[2.2327500999963377],[2.2327637000125833],933458,001,2024-11-08_14h24.13.576,Intentional binding,2024.2.2,60.134171362712756,2024-11-08 14h24.22.450074 +0530,
0.1,1000,exp,7,7,0,space,0.5074881000036839,None,300,1,[1.716765499993926],[1.7167809999955352],0,7,7,9,55.01119489999837,,54.9857478000049,55.01119489999837,56.00005940001574,56.00005940001574,56.01671180000994,56.51758429998881,space,0.5074881000036839,None,56.518421999993734,56.63304646665735,56.957998099998804,56.930752999993274,56.931313900015084,56.957998099998804,56.957998099998804,56.957998099998804,58.67570849999902,300,1,[1.716765499993926],[1.7167809999955352],933458,001,2024-11-08_14h24.13.576,Intentional binding,2024.2.2,60.134171362712756,2024-11-08 14h24.22.450074 +0530,
0.7,1000,exp,8,8,0,space,0.5647316999966279,None,200,1,[1.9165433000016492],[1.9165636000107042],0,8,8,5,58.69069779998972,,58.676070799992885,58.69069779998972,59.690124100015964,59.690124100015964,59.690124100015964,60.2575441999943,space,0.5647316999966279,None,60.25839510001242,60.972721466682074,61.29788510000799,61.27200630001607,61.27249400000437,61.29788510000799,61.29788510000799,61.29788510000799,63.21533790000831,200,1,[1.9165433000016492],[1.9165636000107042],933458,001,2024-11-08_14h24.13.576,Intentional binding,2024.2.2,60.134171362712756,2024-11-08 14h24.22.450074 +0530,
0.4,1000,exp,9,9,0,space,1.10528400001931,None,200,1,[1.5995653000136372],[1.5995794000045862],0,9,9,7,63.23041970000486,,63.215762400010135,63.23041970000486,64.23000760001014,64.23000760001014,64.23000760001014,65.34698420000495,space,1.10528400001931,None,65.34771470000851,65.76252116667844,66.0879116000142,66.06126350001432,66.06181740001193,66.0879116000142,66.0879116000142,66.0879116000142,67.68827529999544,200,1,[1.5995653000136372],[1.5995794000045862],933458,001,2024-11-08_14h24.13.576,Intentional binding,2024.2.2,60.134171362712756,2024-11-08 14h24.22.450074 +0530,
0.4,1000,exp,10,10,0,space,0.8958573999989312,None,200,1,[2.3339505000039935],[2.3339655000017956],0,10,10,10,67.70364429999609,,67.68867999999202,67.70364429999609,68.7028060000157,68.7028060000157,68.7028060000157,69.60355659999186,space,0.8958573999989312,None,69.60431319999043,70.018912566655,70.34370329999365,70.31747129998985,70.31806499999948,70.34370329999365,70.34370329999365,70.34370329999365,72.67856400000164,200,1,[2.3339505000039935],[2.3339655000017956],933458,001,2024-11-08_14h24.13.576,Intentional binding,2024.2.2,60.134171362712756,2024-11-08 14h24.22.450074 +0530,
0.7,400,unexp,11,11,0,space,0.35800239999662153,None,200 ,1,[3.3346207000140566],[3.33463510000729],0,11,11,2,72.69356700000935,,72.67896839999594,72.69356700000935,73.69282920000842,73.69282920000842,73.69282920000842,74.06107540000812,space,0.35800239999662153,None,74.06186640000669,74.77584706666336,75.1006148000015,75.07472649999545,75.07519470000989,75.1006148000015,75.1006148000015,75.1006148000015,78.43599030000041,200 ,1,[3.3346207000140566],[3.33463510000729],933458,001,2024-11-08_14h24.13.576,Intentional binding,2024.2.2,60.134171362712756,2024-11-08 14h24.22.450074 +0530,
0.7,1000,exp,12,0,1,space,26.783499399985885,None,300,1,[1.5496826999878976],[1.5496973999834154],1,0,12,5,78.45126209998853,,78.4362875999941,78.45126209998853,79.45064270001603,79.45064270001603,79.45064270001603,106.24094419999165,space,26.783499399985885,None,106.24185910000233,106.95522256667415,107.28036740000243,107.25620810000692,107.25683249998838,107.28036740000243,107.28036740000243,107.28036740000243,108.83096540000406,300,1,[1.5496826999878976],[1.5496973999834154],933458,001,2024-11-08_14h24.13.576,Intentional binding,2024.2.2,60.134171362712756,2024-11-08 14h24.22.450074 +0530,
0.1,1000,exp,13,1,1,space,0.6148555999970995,None,200,1,[2.815811299980851],[2.815827199985506],1,1,13,6,108.84622090001358,,108.83140920000733,108.84622090001358,109.84554430001299,109.84554430001299,109.84554430001299,110.46299520001048,space,0.6148555999970995,None,110.46385210001608,110.56258096665648,110.88726960000349,110.86173219999182,110.86228560001473,110.88726960000349,110.88726960000349,110.88726960000349,113.70401489999495,200,1,[2.815811299980851],[2.815827199985506],933458,001,2024-11-08_14h24.13.576,Intentional binding,2024.2.2,60.134171362712756,2024-11-08 14h24.22.450074 +0530,
0.7,400,unexp,14,2,1,space,2.461219999997411,None,300,1,[3.6330824999895412],[3.6330933999852277],1,2,14,2,113.71951880000415,,113.70439990001614,113.71951880000415,114.71914070000639,114.71914070000639,114.71914070000639,117.18519980000565,space,2.461219999997411,None,117.1860280999972,117.90052296666933,118.22530079999706,118.19995330000529,118.20036459999392,118.22530079999706,118.22530079999706,118.22530079999706,121.85922220000066,300,1,[3.6330824999895412],[3.6330933999852277],933458,001,2024-11-08_14h24.13.576,Intentional binding,2024.2.2,60.134171362712756,2024-11-08 14h24.22.450074 +0530,
0.7,1000,exp ,15,3,1,space,11.71663810001337,None,200,1,[1.549687199993059],[1.5497016999870539],1,3,15,8,121.87428419999196,,121.85953270000755,121.87428419999196,122.87352260001353,122.87352260001353,122.87352260001353,134.60361749998992,space,11.71663810001337,None,134.60438659999636,135.3187127666645,135.64363159998902,135.61881650000578,135.61929709999822,135.64363159998902,135.64363159998902,135.64363159998902,137.1941802999936,200,1,[1.549687199993059],[1.5497016999870539],933458,001,2024-11-08_14h24.13.576,Intentional binding,2024.2.2,60.134171362712756,2024-11-08 14h24.22.450074 +0530,
0.4,1000,exp,16,4,1,space,0.4166235000011511,None,200,1,[1.5007003000064287],[1.5007112000021152],1,4,16,10,137.209305700002,,137.19449729999178,137.209305700002,138.20938240000396,138.20938240000396,138.20938240000396,138.64290949999122,space,0.4166235000011511,None,138.64366599998903,139.0584004666637,139.3835328000132,139.35917459998745,139.3597837999987,139.3835328000132,139.3835328000132,139.3835328000132,140.88513549999334,200,1,[1.5007003000064287],[1.5007112000021152],933458,001,2024-11-08_14h24.13.576,Intentional binding,2024.2.2,60.134171362712756,2024-11-08 14h24.22.450074 +0530,
0.1,1000,exp,17,5,1,space,1.0385144000174478,None,300,1,[1.5827057999849785],[1.5827203000080772],1,5,17,9,140.90017750000698,,140.88549789998797,140.90017750000698,141.89984870000626,141.89984870000626,141.89984870000626,142.95052010001382,space,1.0385144000174478,None,142.95161980000557,143.0658155666645,143.39118249999592,143.36290959999315,143.36355899999035,143.39118249999592,143.39118249999592,143.39118249999592,144.97479090001434,300,1,[1.5827057999849785],[1.5827203000080772],933458,001,2024-11-08_14h24.13.576,Intentional binding,2024.2.2,60.134171362712756,2024-11-08 14h24.22.450074 +0530,
0.1,400,unexp,18,6,1,space,0.9753730999946129,None,200,1,[1.7669254999782424],[1.7669440999743529],1,6,18,0,144.9900098000071,,144.9751549999928,144.9900098000071,145.98969089999446,145.98969089999446,145.98969089999446,146.97378840000601,space,0.9753730999946129,None,146.9745421000116,147.0890755666808,147.41420050000306,147.38402769999811,147.38458149999497,147.41420050000306,147.41420050000306,147.41420050000306,149.18232349999016,200,1,[1.7669254999782424],[1.7669440999743529],933458,001,2024-11-08_14h24.13.576,Intentional binding,2024.2.2,60.134171362712756,2024-11-08 14h24.22.450074 +0530,
0.7,1000,exp,19,7,1,space,0.9984590999956708,None,100,1,[1.5502229999983683],[1.550237500021467],1,7,19,11,149.1969805000117,,149.18271359999198,149.1969805000117,150.1965763999906,150.1965763999906,150.1965763999906,151.19731950000278,space,0.9984590999956708,None,151.19819220001227,151.91184486667433,152.2372306000034,152.21299890000955,152.2136732999934,152.2372306000034,152.2372306000034,152.2372306000034,153.7882862999977,100,1,[1.5502229999983683],[1.550237500021467],933458,001,2024-11-08_14h24.13.576,Intentional binding,2024.2.2,60.134171362712756,2024-11-08 14h24.22.450074 +0530,
0.4,1000,exp,20,8,1,space,0.8906903000024613,None,100,1,[1.5501124000002164],[1.550125499983551],1,8,20,4,153.80358239999623,,153.78866580000613,153.80358239999623,154.80257540001185,154.80257540001185,154.80257540001185,155.70358780000242,space,0.8906903000024613,None,155.7044778999989,156.1186968666773,156.4433462000161,156.4192650000041,156.41979630000424,156.4433462000161,156.4433462000161,156.4433462000161,157.99443819999578,100,1,[1.5501124000002164],[1.550125499983551],933458,001,2024-11-08_14h24.13.576,Intentional binding,2024.2.2,60.134171362712756,2024-11-08 14h24.22.450074 +0530,
0.1,1000,exp,21,9,1,space,1.7664895000052638,None,200,1,[3.831642000004649],[3.831657200003974],1,9,21,3,158.00965510000242,,157.99487029999727,158.00965510000242,159.0091562999878,159.0091562999878,159.0091562999878,160.79294049998862,space,1.7664895000052638,None,160.79369409999344,160.90910016667138,161.23415850001038,161.2080428999907,161.20856870000716,161.23415850001038,161.23415850001038,161.23415850001038,165.06665419999626,200,1,[3.831642000004649],[3.831657200003974],933458,001,2024-11-08_14h24.13.576,Intentional binding,2024.2.2,60.134171362712756,2024-11-08 14h24.22.450074 +0530,
0.4,1000,exp,22,10,1,space,0.33954529999755323,None,300,1,[1.733631899987813],[1.7336467999848537],1,10,22,7,165.0816085000115,,165.06696980001288,165.0816085000115,166.0810150000034,166.0810150000034,166.0810150000034,166.4319564999896,space,0.33954529999755323,None,166.43272060001618,166.8472942666597,167.17214050001348,167.14940439999918,167.14993489999324,167.17214050001348,167.17214050001348,167.17214050001348,168.9067548000021,300,1,[1.733631899987813],[1.7336467999848537],933458,001,2024-11-08_14h24.13.576,Intentional binding,2024.2.2,60.134171362712756,2024-11-08 14h24.22.450074 +0530,
0.4,400,unexp,23,11,1,space,0.3562402999959886,None,100,1,[2.4332982000196353],[2.4333123000105843],1,11,23,1,168.92161399999168,,168.9071576000133,168.92161399999168,169.9212191000115,169.9212191000115,169.9212191000115,170.28877720001037,space,0.3562402999959886,None,170.2895797000092,170.70430276665527,171.02909019999788,171.00004260000424,171.00067360000685,171.02909019999788,171.02909019999788,171.02909019999788,173.46331530000316,100,1,[2.4332982000196353],[2.4333123000105843],933458,001,2024-11-08_14h24.13.576,Intentional binding,2024.2.2,60.134171362712756,2024-11-08 14h24.22.450074 +0530,
0.4,1000,exp,24,0,2,space,0.5053605000139214,None,200,1,[1.4995179999968968],[1.499532999994699],2,0,24,7,173.47804119999637,,173.46377890001168,173.47804119999637,174.47726280000643,174.47726280000643,174.47726280000643,174.99517509998986,space,0.5053605000139214,None,174.9960199999914,175.41028346665942,175.73590440000407,175.71091100000194,175.71148610001546,175.73590440000407,175.73590440000407,175.73590440000407,177.23623999999836,200,1,[1.4995179999968968],[1.499532999994699],933458,001,2024-11-08_14h24.13.576,Intentional binding,2024.2.2,60.134171362712756,2024-11-08 14h24.22.450074 +0530,
0.1,1000,exp,25,1,2,space,0.424992399988696,None,200,1,[2.0105373000260442],[2.0105524000246078],2,1,25,9,177.25130609999178,,177.23662320000585,177.25130609999178,178.25072310000542,178.25072310000542,178.25072310000542,178.68531500000972,space,0.424992399988696,None,178.68607970001176,178.80042816666926,179.12523269999656,179.09617380000418,179.0968120000034,179.12523269999656,179.12523269999656,179.12523269999656,181.13673210001434,200,1,[2.0105373000260442],[2.0105524000246078],933458,001,2024-11-08_14h24.13.576,Intentional binding,2024.2.2,60.134171362712756,2024-11-08 14h24.22.450074 +0530,
0.4,1000,exp,26,2,2,space,0.44889110000804067,None,200,1,[1.899421500012977],[1.8994365000107791],2,2,26,4,181.1515592999931,,181.13723140000366,181.1515592999931,182.1508509000123,182.1508509000123,182.1508509000123,182.60181570000714,space,0.44889110000804067,None,182.60267250001198,183.01715756667934,183.34260550001636,183.32014060000074,183.32063040000503,183.34260550001636,183.34260550001636,183.34260550001636,185.24299590001465,200,1,[1.899421500012977],[1.8994365000107791],933458,001,2024-11-08_14h24.13.576,Intentional binding,2024.2.2,60.134171362712756,2024-11-08 14h24.22.450074 +0530,
0.1,400,unexp,27,3,2,space,0.4300807999970857,None,100,1,[1.8503704000031576],[1.8503854000009596],2,3,27,0,185.25809879999724,,185.24341060000006,185.25809879999724,186.25755199999548,186.25755199999548,186.25755199999548,186.69172360000084,space,0.4300807999970857,None,186.6924668000138,186.80732486668083,187.13205610000296,187.10675480001373,187.10729710001033,187.13205610000296,187.13205610000296,187.13205610000296,188.98324249999132,100,1,[1.8503704000031576],[1.8503854000009596],933458,001,2024-11-08_14h24.13.576,Intentional binding,2024.2.2,60.134171362712756,2024-11-08 14h24.22.450074 +0530,
0.1,1000,exp,28,4,2,space,0.3617950000043493,None,300,1,[1.799798499996541],[1.7998176999972202],2,4,28,6,189.0015127999941,,188.98371359999874,189.0015127999941,189.99791860001278,189.99791860001278,190.0142152000044,190.3651424999989,space,0.3617950000043493,None,190.36597000001348,190.4806500666639,190.8061749000044,190.77623920000042,190.7767116999894,190.8061749000044,190.8061749000044,190.8061749000044,192.60701330000302,300,1,[1.799798499996541],[1.7998176999972202],933458,001,2024-11-08_14h24.13.576,Intentional binding,2024.2.2,60.134171362712756,2024-11-08 14h24.22.450074 +0530,
0.7,1000,exp,29,5,2,space,1.0275024000147823,None,100,1,[1.634015299991006],[1.6340297000133432],2,5,29,11,192.62196519999998,,192.60741269998834,192.62196519999998,193.62115079999785,193.62115079999785,193.62115079999785,194.65526379999937,space,1.0275024000147823,None,194.65614040000946,195.37016846667782,195.69543469999917,195.67221660001087,195.6731553999998,195.69543469999917,195.69543469999917,195.69543469999917,197.33027360000415,100,1,[1.634015299991006],[1.6340297000133432],933458,001,2024-11-08_14h24.13.576,Intentional binding,2024.2.2,60.134171362712756,2024-11-08 14h24.22.450074 +0530,
0.4,1000,exp,30,6,2,space,1.668721199996071,None,200,1,[1.966543599992292],[1.9665581999870483],2,6,30,10,197.34538240000256,,197.3306537999888,197.34538240000256,198.344654000015,198.344654000015,198.344654000015,200.02858429998741,space,1.668721199996071,None,200.02946809999412,200.4449106666764,200.76074190001236,200.74526100000367,200.7457643999951,200.76074190001236,200.76074190001236,200.76074190001236,202.7281159000122,200,1,[1.966543599992292],[1.9665581999870483],933458,001,2024-11-08_14h24.13.576,Intentional binding,2024.2.2,60.134171362712756,2024-11-08 14h24.22.450074 +0530,
0.7,400,unexp,31,7,2,space,0.6118053999962285,None,200,1,[2.0672224999871105],[2.067237799987197],2,7,31,2,202.7466768999875,,202.7284165000019,202.7466768999875,203.74264979999862,203.74264979999862,203.75899659999413,204.35999649998848,space,0.6118053999962285,None,204.36074770000414,205.07522136666037,205.400229699997,205.37942969999858,205.37997000000905,205.400229699997,205.400229699997,205.400229699997,207.46838890001527,200,1,[2.0672224999871105],[2.067237799987197],933458,001,2024-11-08_14h24.13.576,Intentional binding,2024.2.2,60.134171362712756,2024-11-08 14h24.22.450074 +0530,
0.4,400,unexp,32,8,2,space,2.4474177999945823,None,200,1,[1.3834784999780823],[1.3834929000004195],2,8,32,1,207.4833983000135,,207.4688662000117,207.4833983000135,208.48276220000116,208.48276220000116,208.48276220000116,210.93303439999,space,2.4474177999945823,None,210.93384700000752,211.34817616668104,211.67286819999572,211.65191650000634,211.65363409998827,211.67286819999572,211.67286819999572,211.67286819999572,213.05720370000927,200,1,[1.3834784999780823],[1.3834929000004195],933458,001,2024-11-08_14h24.13.576,Intentional binding,2024.2.2,60.134171362712756,2024-11-08 14h24.22.450074 +0530,
0.1,1000,exp,33,9,2,space,0.5142214999941643,None,300,1,[23.40742649999447],[23.407441399991512],2,9,33,3,213.07308649999322,,213.05760060000466,213.07308649999322,214.0713018999959,214.0713018999959,214.08794349999516,214.58881509999628,space,0.5142214999941643,None,214.58954760001507,214.70491566666558,215.02954389998922,215.0003032000095,215.00086629998987,215.02954389998922,215.02954389998922,215.02954389998922,238.43783599999733,300,1,[23.40742649999447],[23.407441399991512],933458,001,2024-11-08_14h24.13.576,Intentional binding,2024.2.2,60.134171362712756,2024-11-08 14h24.22.450074 +0530,
0.7,1000,exp ,34,10,2,space,0.41380940002272837,None,200,1,[2.2996603999927174],[2.299676399998134],2,10,34,8,238.45296699999017,,238.43821930000558,238.45296699999017,239.45222380000632,239.45222380000632,239.45222380000632,239.86982530000387,space,0.41380940002272837,None,239.8707529999956,240.58529356666648,240.91024279998965,240.88804170000367,240.88856960000703,240.91024279998965,240.91024279998965,240.91024279998965,243.21081530000083,200,1,[2.2996603999927174],[2.299676399998134],933458,001,2024-11-08_14h24.13.576,Intentional binding,2024.2.2,60.134171362712756,2024-11-08 14h24.22.450074 +0530,
0.7,1000,exp,35,11,2,space,0.2558650000137277,None,300,1,[1.7498025000095367],[1.7498166000004858],2,11,35,5,243.22588350001024,,243.21118959999876,243.22588350001024,244.22543880000012,244.22543880000012,244.22543880000012,244.49310399999376,space,0.2558650000137277,None,244.49395040000672,245.20820466668036,245.53329019999364,245.5067788999877,245.50724810000975,245.53329019999364,245.53329019999364,245.53329019999364,247.284015799989,300,1,[1.7498025000095367],[1.7498166000004858],933458,001,2024-11-08_14h24.13.576,Intentional binding,2024.2.2,60.134171362712756,2024-11-08 14h24.22.450074 +0530,
0.7,1000,exp,36,0,3,space,1.254201000003377,None,100,1,[1.7994569999864325],[1.7994714000087697],3,0,36,5,247.2991011000122,,247.2844175999926,247.2991011000122,248.28214480000315,248.28214480000315,248.29973980001523,249.54783339999267,space,1.254201000003377,None,249.5485989000008,250.26318306665442,250.58821670000907,250.56304569999338,250.5635665000009,250.58821670000907,250.58821670000907,250.58821670000907,252.38854829999036,100,1,[1.7994569999864325],[1.7994714000087697],933458,001,2024-11-08_14h24.13.576,Intentional binding,2024.2.2,60.134171362712756,2024-11-08 14h24.22.450074 +0530,
0.1,1000,exp,37,1,3,space,3.6390680999902543,None,200,1,[2.8496159999922384],[2.8496322999999393],3,1,37,3,252.40392400001292,,252.38895190000767,252.40392400001292,253.40325249999296,253.40325249999296,253.40325249999296,257.052829799999,space,3.6390680999902543,None,257.053590800002,257.16858246666766,257.4935222000058,257.46415650000563,257.4646642000007,257.4935222000058,257.4935222000058,257.4935222000058,260.34396560001187,200,1,[2.8496159999922384],[2.8496322999999393],933458,001,2024-11-08_14h24.13.576,Intentional binding,2024.2.2,60.134171362712756,2024-11-08 14h24.22.450074 +0530,
0.1,400,unexp,38,2,3,space,0.9425106999988202,None,200,1,[2.7493640999891795],[2.7493788999854587],3,2,38,0,260.35894410000765,,260.3443411999906,260.35894410000765,261.35825739998836,261.35825739998836,261.35825739998836,262.3092056000023,space,0.9425106999988202,None,262.3099734999996,262.42433626667867,262.74953289999394,262.72281159998965,262.72328430000925,262.74953289999394,262.74953289999394,262.74953289999394,265.49982450000243,200,1,[2.7493640999891795],[2.7493788999854587],933458,001,2024-11-08_14h24.13.576,Intentional binding,2024.2.2,60.134171362712756,2024-11-08 14h24.22.450074 +0530,
0.1,1000,exp,39,3,3,space,0.7334632000129204,None,100,1,[1.7327535999938846],[1.7327671000093687],3,3,39,6,265.5152511000051,,265.5002058999962,265.5152511000051,266.51450900000054,266.51450900000054,266.51450900000054,267.2650117999874,space,0.7334632000129204,None,267.26574850000907,267.3644935666564,267.68928379999124,267.66182460001437,267.6623733000015,267.68928379999124,267.68928379999124,267.68928379999124,269.4229628999892,100,1,[1.7327535999938846],[1.7327671000093687],933458,001,2024-11-08_14h24.13.576,Intentional binding,2024.2.2,60.134171362712756,2024-11-08 14h24.22.450074 +0530,
0.4,1000,exp,40,4,3,space,0.7005689000070561,None,300,1,[1.5505039000126999],[1.550518000003649],3,4,40,7,269.43823460000567,,269.4233709000109,269.43823460000567,270.43750070000533,270.43750070000533,270.43750070000533,271.15486959999544,space,0.7005689000070561,None,271.15573940001195,271.57078886666955,271.8953734000097,271.8749596000125,271.8754835000145,271.8953734000097,271.8953734000097,271.8953734000097,273.4467219999933,300,1,[1.5505039000126999],[1.550518000003649],933458,001,2024-11-08_14h24.13.576,Intentional binding,2024.2.2,60.134171362712756,2024-11-08 14h24.22.450074 +0530,
0.7,1000,exp,41,5,3,space,0.6928509999997914,None,300,1,[2.284844999987399],[2.2848597999836784],3,5,41,11,273.46156580001116,,273.4470335000078,273.46156580001116,274.46178599999985,274.46178599999985,274.46178599999985,275.16175070000463,space,0.6928509999997914,None,275.1625101999962,275.87715216668244,276.2022399000125,276.17356900000595,276.1740454999963,276.2022399000125,276.2022399000125,276.2022399000125,278.4880000000121,300,1,[2.284844999987399],[2.2848597999836784],933458,001,2024-11-08_14h24.13.576,Intentional binding,2024.2.2,60.134171362712756,2024-11-08 14h24.22.450074 +0530,
0.7,400,unexp,42,6,3,space,0.4859588000108488,None,200,1,[2.4328949000046123],[2.43290960000013],3,6,42,2,278.5032485999982,,278.48842010000953,278.5032485999982,279.5039882000128,279.5039882000128,279.5039882000128,280.0040194999892,space,0.4859588000108488,None,280.00487299999804,280.71876396667017,281.04384779999964,281.0165165000071,281.0170601000136,281.04384779999964,281.04384779999964,281.04384779999964,283.47778200000175,200,1,[2.4328949000046123],[2.43290960000013],933458,001,2024-11-08_14h24.13.576,Intentional binding,2024.2.2,60.134171362712756,2024-11-08 14h24.22.450074 +0530,
0.4,1000,exp,43,7,3,space,4.84534060000442,None,200,1,[2.533672599995043],[2.533686699985992],3,7,43,10,283.49265200001537,,283.4782006999885,283.49265200001537,284.4924716000096,284.4924716000096,284.4924716000096,289.34156030000304,space,4.84534060000442,None,289.342445199989,289.75635566667574,290.08130049999454,290.0568001999927,290.0572666999942,290.08130049999454,290.08130049999454,290.08130049999454,292.61586240000906,200,1,[2.533672599995043],[2.533686699985992],933458,001,2024-11-08_14h24.13.576,Intentional binding,2024.2.2,60.134171362712756,2024-11-08 14h24.22.450074 +0530,
0.7,1000,exp ,44,8,3,space,0.418356699985452,None,200,1,[1.9163046999892686],[1.9163152999826707],3,8,44,8,292.63087839999935,,292.61625930000446,292.63087839999935,293.6301323999942,293.6301323999942,293.6301323999942,294.06417150000925,space,0.418356699985452,None,294.06491740001366,294.77960606667716,295.10458579999977,295.07474119999097,295.0752034999896,295.10458579999977,295.10458579999977,295.10458579999977,297.02170099999057,200,1,[1.9163046999892686],[1.9163152999826707],933458,001,2024-11-08_14h24.13.576,Intentional binding,2024.2.2,60.134171362712756,2024-11-08 14h24.22.450074 +0530,
0.1,1000,exp,45,9,3,space,12.374541099998169,None,200,1,[2.5993275999790058],[2.599342199973762],3,9,45,9,297.0371584999957,,297.0220094000106,297.0371584999957,298.03661089998786,298.03661089998786,298.03661089998786,310.41575620000367,space,12.374541099998169,None,310.4165175000089,310.5312097666649,310.85626210001647,310.82967539998936,310.83025890000863,310.85626210001647,310.85626210001647,310.85626210001647,313.45649869999033,200,1,[2.5993275999790058],[2.599342199973762],933458,001,2024-11-08_14h24.13.576,Intentional binding,2024.2.2,60.134171362712756,2024-11-08 14h24.22.450074 +0530,
0.4,400,unexp,46,10,3,space,0.4162046000128612,None,300,1,[2.232777099998202],[2.232795599993551],3,10,46,1,313.4719899999909,,313.4569391999976,313.4719899999909,314.47120080000605,314.47120080000605,314.47120080000605,314.88918399999966,space,0.4162046000128612,None,314.88996639999095,315.3040775666634,315.6295012999908,315.6081916000112,315.6086751999974,315.6295012999908,315.6295012999908,315.6295012999908,317.8631482000055,300,1,[2.232777099998202],[2.232795599993551],933458,001,2024-11-08_14h24.13.576,Intentional binding,2024.2.2,60.134171362712756,2024-11-08 14h24.22.450074 +0530,
0.4,1000,exp,47,11,3,space,3.2510036999883596,None,200,1,[1.8670908999920357],[1.8671048999822233],3,11,47,4,317.8781572000007,,317.8635445999971,317.8781572000007,318.8776319999888,318.8776319999888,318.8776319999888,322.14385319998837,space,3.2510036999883596,None,322.144604400004,322.55933116667825,322.8841775000037,322.8617266000074,322.8622719999985,322.8841775000037,322.8841775000037,322.8841775000037,324.752098500001,200,1,[1.8670908999920357],[1.8671048999822233],933458,001,2024-11-08_14h24.13.576,Intentional binding,2024.2.2,60.134171362712756,2024-11-08 14h24.22.450074 +0530,
0.7,1000,exp,48,0,4,space,0.5637343999987934,None,100,1,[1.4668811000010464],[1.4668967000034172],4,0,48,11,324.76701840001624,,324.75248389999615,324.76701840001624,325.7664754000143,325.7664754000143,325.7664754000143,326.3338034999906,space,0.5637343999987934,None,326.33453590000863,327.0491526666776,327.3741861000017,327.3522918999952,327.35277430000133,327.3741861000017,327.3741861000017,327.3741861000017,328.8419836999965,100,1,[1.4668811000010464],[1.4668967000034172],933458,001,2024-11-08_14h24.13.576,Intentional binding,2024.2.2,60.134171362712756,2024-11-08 14h24.22.450074 +0530,
0.1,1000,exp,49,1,4,space,0.5110480999865104,None,200,1,[2.41640180000104],[2.416416499996558],4,1,49,9,328.85680830001365,,328.84238839999307,328.85680830001365,329.85623110001325,329.85623110001325,329.85623110001325,330.37370289998944,space,0.5110480999865104,None,330.3744354000082,330.4892418666607,330.8141064000083,330.78675349999685,330.7872223999875,330.8141064000083,330.8141064000083,330.8141064000083,333.23137749999296,200,1,[2.41640180000104],[2.416416499996558],933458,001,2024-11-08_14h24.13.576,Intentional binding,2024.2.2,60.134171362712756,2024-11-08 14h24.22.450074 +0530,
0.1,1000,exp,50,2,4,space,0.4531485000043176,None,300,1,[1.9498677999945357],[1.9498836999991909],4,2,50,3,333.2465985000017,,333.2317745999899,333.2465985000017,334.2462940000114,334.2462940000114,334.2462940000114,334.71372590001556,space,0.4531485000043176,None,334.71463070000755,334.82911906668255,335.15430789999664,335.12809010001365,335.12854649999645,335.15430789999664,335.15430789999664,335.15430789999664,337.1049358000164,300,1,[1.9498677999945357],[1.9498836999991909],933458,001,2024-11-08_14h24.13.576,Intentional binding,2024.2.2,60.134171362712756,2024-11-08 14h24.22.450074 +0530,
0.4,1000,exp,51,3,4,space,0.42894529999466613,None,100,1,[2.949213799991412],[2.949227200006135],4,3,51,7,337.11998389998917,,337.1052641000133,337.11998389998917,338.119426499994,338.119426499994,338.119426499994,338.5534171999898,space,0.42894529999466613,None,338.554258499993,338.9690360666757,339.29426540000713,339.2668696999899,339.26737200000207,339.29426540000713,339.29426540000713,339.29426540000713,342.24425230000634,100,1,[2.949213799991412],[2.949227200006135],933458,001,2024-11-08_14h24.13.576,Intentional binding,2024.2.2,60.134171362712756,2024-11-08 14h24.22.450074 +0530,
0.7,1000,exp,52,4,4,space,0.36644059998798184,None,200,1,[1.4003742999921087],[1.400391800008947],4,4,52,5,342.2597362000088,,342.2446138999949,342.2597362000088,343.259290099988,343.259290099988,343.259290099988,343.6427590000094,space,0.36644059998798184,None,343.64359530000365,344.3419861666664,344.66648429998895,344.6431877000141,344.64372240001103,344.66648429998895,344.66648429998895,344.66648429998895,346.06776649999665,200,1,[1.4003742999921087],[1.400391800008947],933458,001,2024-11-08_14h24.13.576,Intentional binding,2024.2.2,60.134171362712756,2024-11-08 14h24.22.450074 +0530,
0.7,400,unexp,53,5,4,space,0.3255034000030719,None,300 ,1,[3.1164414000231773],[3.116452800022671],4,5,53,2,346.0828918000043,,346.0681437999883,346.0828918000043,347.082433100004,347.082433100004,347.082433100004,347.41675619999296,space,0.3255034000030719,None,347.4175089999917,348.1315643666642,348.45644020001055,348.4294921999972,348.43019159999676,348.45644020001055,348.45644020001055,348.45644020001055,351.5736975999898,300 ,1,[3.1164414000231773],[3.116452800022671],933458,001,2024-11-08_14h24.13.576,Intentional binding,2024.2.2,60.134171362712756,2024-11-08 14h24.22.450074 +0530,
0.7,1000,exp ,54,6,4,space,0.394552499987185,None,300 ,1,[2.5016154999902938],[2.5016315999964718],4,6,54,8,351.588978499989,,351.5740030000161,351.588978499989,352.5882927000057,352.5882927000057,352.5882927000057,352.9890496000007,space,0.394552499987185,None,352.98978219999117,353.7042932666702,354.02941320001264,354.0081418000045,354.0086946999945,354.02941320001264,354.02941320001264,354.02941320001264,356.53191940000397,300 ,1,[2.5016154999902938],[2.5016315999964718],933458,001,2024-11-08_14h24.13.576,Intentional binding,2024.2.2,60.134171362712756,2024-11-08 14h24.22.450074 +0530,
0.1,400,unexp,55,7,4,space,0.5299883999978192,None,100,1,[2.3859091000049375],[2.385931500000879],4,7,55,0,356.54608709999593,,356.532223599992,356.54608709999593,357.5459205000079,357.5459205000079,357.5459205000079,358.0801186999888,space,0.5299883999978192,None,358.0808890000044,358.1953633666601,358.5202898000134,358.4988574000017,358.4993431000039,358.5202898000134,358.5202898000134,358.5202898000134,360.90697740000905,100,1,[2.3859091000049375],[2.385931500000879],933458,001,2024-11-08_14h24.13.576,Intentional binding,2024.2.2,60.134171362712756,2024-11-08 14h24.22.450074 +0530,
0.1,1000,exp,56,8,4,space,0.45441269999719225,None,200,1,[1.8172837999882177],[1.8173015999782365],4,8,56,6,360.92246430000523,,360.90730650001206,360.92246430000523,361.92181150001124,361.92181150001124,361.92181150001124,362.3898855000152,space,0.45441269999719225,None,362.3906653999875,362.5051950666568,362.83019549999153,362.8080952000164,362.80856900001527,362.83019549999153,362.83019549999153,362.83019549999153,364.64832400000887,200,1,[1.8172837999882177],[1.8173015999782365],933458,001,2024-11-08_14h24.13.576,Intentional binding,2024.2.2,60.134171362712756,2024-11-08 14h24.22.450074 +0530,
0.4,1000,exp,57,9,4,space,0.2688475000031758,None,300,1,[1.5828298999986146],[1.5828423999773804],4,9,57,4,364.6637549000152,,364.6486959999893,364.6637549000152,365.66282050000154,365.66282050000154,365.66282050000154,365.94781169999624,space,0.2688475000031758,None,365.9486363999895,366.36278656666786,366.6879464999947,366.658794899995,366.65928319998784,366.6879464999947,366.6879464999947,366.6879464999947,368.27150599999004,300,1,[1.5828298999986146],[1.5828423999773804],933458,001,2024-11-08_14h24.13.576,Intentional binding,2024.2.2,60.134171362712756,2024-11-08 14h24.22.450074 +0530,
0.4,1000,exp,58,10,4,space,0.5065076999890152,None,200,1,[1.9324268999916967],[1.9324416999879759],4,10,58,10,368.2871371000074,,368.27191420001327,368.2871371000074,369.2862221999967,369.2862221999967,369.2862221999967,369.80465299999923,space,0.5065076999890152,None,369.8056355000008,370.21976316668247,370.5446217000135,370.5201989999914,370.52076760001364,370.5446217000135,370.5446217000135,370.5446217000135,372.4779927000054,200,1,[1.9324268999916967],[1.9324416999879759],933458,001,2024-11-08_14h24.13.576,Intentional binding,2024.2.2,60.134171362712756,2024-11-08 14h24.22.450074 +0530,
0.4,400,unexp,59,11,4,space,0.5587489000172354,None,200,1,[1.7661581999855116],[1.7661688999796752],4,11,59,1,372.49339099999634,,372.47843320001266,372.49339099999634,373.49280959999305,373.49280959999305,373.49280959999305,374.06063759999233,space,0.5587489000172354,None,374.06157339998754,374.4758371666578,374.80066750000697,374.7769181999902,374.7774464999966,374.80066750000697,374.80066750000697,374.80066750000697,376.5675435999874,200,1,[1.7661581999855116],[1.7661688999796752],933458,001,2024-11-08_14h24.13.576,Intentional binding,2024.2.2,60.134171362712756,2024-11-08 14h24.22.450074 +0530,
0.1,1000,exp,60,0,5,space,0.3250193999847397,None,300 ,1,[7.431459799990989],[7.4314764000009745],5,0,60,9,376.58338890000596,,376.5679575999966,376.58338890000596,377.58251670000027,377.58251670000027,377.58251670000027,377.9176564000081,space,0.3250193999847397,None,377.918439400004,378.03242386665465,378.35741679999046,378.3281974999991,378.3286856999912,378.35741679999046,378.35741679999046,378.35741679999046,385.7897355000023,300 ,1,[7.431459799990989],[7.4314764000009745],933458,001,2024-11-08_14h24.13.576,Intentional binding,2024.2.2,60.134171362712756,2024-11-08 14h24.22.450074 +0530,
0.7,1000,exp,61,1,5,space,317.2512456999975,None,200,1,[1.6327308999898378],[1.632745300012175],5,1,61,5,385.8046256999951,,385.790127699991,385.8046256999951,386.803751200001,386.803751200001,386.803751200001,704.067991399992,space,317.2512456999975,None,704.0689102000033,704.7831972666647,705.1085098999902,705.0803283000132,705.0808250000118,705.1085098999902,705.1085098999902,705.1085098999902,706.7420827999886,200,1,[1.6327308999898378],[1.632745300012175],933458,001,2024-11-08_14h24.13.576,Intentional binding,2024.2.2,60.134171362712756,2024-11-08 14h24.22.450074 +0530,
0.4,1000,exp,62,2,5,space,8.519507799996063,None,200,1,[1.6334324999770615],[1.6334448999841698],5,2,62,7,706.7575107000011,,706.7424037000164,706.7575107000011,707.7570354999916,707.7570354999916,707.7570354999916,716.2876237000164,space,8.519507799996063,None,716.2883900000015,716.6868217666672,717.0113120999886,716.9847326000163,716.9867499000102,717.0113120999886,717.0113120999886,717.0113120999886,718.6456599000085,200,1,[1.6334324999770615],[1.6334448999841698],933458,001,2024-11-08_14h24.13.576,Intentional binding,2024.2.2,60.134171362712756,2024-11-08 14h24.22.450074 +0530,
0.4,400,unexp,63,3,5,space,0.3616281000140589,None,300,1,[2.083222899993416],[2.083239500003401],5,3,63,1,718.6606198000081,,718.6459634999919,718.6606198000081,719.6602141000039,719.6602141000039,719.6602141000039,720.0284451000043,space,0.3616281000140589,None,720.0292696999968,720.4431727666563,720.7682736999996,720.7396058000159,720.7401820000086,720.7682736999996,720.7682736999996,720.7682736999996,722.8522452999896,300,1,[2.083222899993416],[2.083239500003401],933458,001,2024-11-08_14h24.13.576,Intentional binding,2024.2.2,60.134171362712756,2024-11-08 14h24.22.450074 +0530,
0.7,400,unexp,64,4,5,space,0.3508676000055857,None,300,1,[1.5837985999824014],[1.5838345999945886],5,4,64,2,722.8672781999921,,722.852549800009,722.8672781999921,723.8666019999946,723.8666019999946,723.8666019999946,724.2343296000035,space,0.3508676000055857,None,724.2351493999886,724.9494280666734,725.2742875000113,725.2510977000056,725.2515252000012,725.2742875000113,725.2742875000113,725.2742875000113,726.8589196999965,300,1,[1.5837985999824014],[1.5838345999945886],933458,001,2024-11-08_14h24.13.576,Intentional binding,2024.2.2,60.134171362712756,2024-11-08 14h24.22.450074 +0530,
0.7,1000,exp ,65,5,5,space,0.46511150000151247,None,200,1,[2.3331367000064347],[2.3331512000004295],5,5,65,8,726.8737445000152,,726.8592136999941,726.8737445000152,727.8732077000022,727.8732077000022,727.8732077000022,728.3412825000123,space,0.46511150000151247,None,728.342101199989,729.0561186666639,729.3809649999894,729.3582152000163,729.3587578000152,729.3809649999894,729.3809649999894,729.3809649999894,731.714947600005,200,1,[2.3331367000064347],[2.3331512000004295],933458,001,2024-11-08_14h24.13.576,Intentional binding,2024.2.2,60.134171362712756,2024-11-08 14h24.22.450074 +0530,
0.7,1000,exp,66,6,5,space,0.2522510999988299,None,200,1,[1.454371200001333],[1.4543842000130098],5,6,66,11,731.7301196999906,,731.7153386000136,731.7301196999906,732.7299360999896,732.7299360999896,732.7299360999896,732.9970208999875,space,0.2522510999988299,None,732.9982026999933,733.7123759666613,734.0374583000084,734.0083544999943,734.0090184000146,734.0374583000084,734.0374583000084,734.0374583000084,735.4926869999908,200,1,[1.454371200001333],[1.4543842000130098],933458,001,2024-11-08_14h24.13.576,Intentional binding,2024.2.2,60.134171362712756,2024-11-08 14h24.22.450074 +0530,
0.1,400,unexp,67,7,5,space,10.455282399983844,None,300,1,[2.1335204000060912],[2.133544599986635],5,7,67,0,735.5074020999891,,735.4930019000021,735.5074020999891,736.5067338999943,736.5067338999943,736.5067338999943,746.9700219999941,space,10.455282399983844,None,746.9707659000123,747.069427966668,747.39395160001,747.3699189999897,747.3704158999899,747.39395160001,747.39395160001,747.39395160001,749.5283558999945,300,1,[2.1335204000060912],[2.133544599986635],933458,001,2024-11-08_14h24.13.576,Intentional binding,2024.2.2,60.134171362712756,2024-11-08 14h24.22.450074 +0530,
0.1,1000,exp,68,8,5,space,0.2790286999952514,None,300,1,[1.6178918000077829],[1.6179073000093922],5,8,68,6,749.5430684000021,,749.528710899991,749.5430684000021,750.5424323999905,750.5424323999905,750.5424323999905,750.8270122999966,space,0.2790286999952514,None,750.8277483000129,750.9423554666612,751.2671730000002,751.245760299993,751.2462284000067,751.2671730000002,751.2671730000002,751.2671730000002,752.8857605000085,300,1,[1.6178918000077829],[1.6179073000093922],933458,001,2024-11-08_14h24.13.576,Intentional binding,2024.2.2,60.134171362712756,2024-11-08 14h24.22.450074 +0530,
0.4,1000,exp,69,9,5,space,0.39022810000460595,None,200,1,[1.4000765999953728],[1.4000920999969821],5,9,69,4,752.90102260001,,752.8860976000142,752.90102260001,753.900360700005,753.900360700005,753.900360700005,754.3014496999967,space,0.39022810000460595,None,754.3021924000059,754.7167929666796,755.0422105999896,755.0173116000078,755.0178341999999,755.0422105999896,755.0422105999896,755.0422105999896,756.443202800001,200,1,[1.4000765999953728],[1.4000920999969821],933458,001,2024-11-08_14h24.13.576,Intentional binding,2024.2.2,60.134171362712756,2024-11-08 14h24.22.450074 +0530,
0.4,1000,exp,70,10,5,space,0.3050663000030909,None,300,1,[2.0830919000145514],[2.083121300005587],5,10,70,10,756.4585535000078,,756.4435955999943,756.4585535000078,757.4578551000159,757.4578551000159,757.4578551000159,757.7755771999946,space,0.3050663000030909,None,757.7763084000035,758.191024666656,758.5167949000024,758.4883398000093,758.4889102999878,758.5167949000024,758.5167949000024,758.5167949000024,760.600919199991,300,1,[2.0830919000145514],[2.083121300005587],933458,001,2024-11-08_14h24.13.576,Intentional binding,2024.2.2,60.134171362712756,2024-11-08 14h24.22.450074 +0530,
0.1,1000,exp,71,11,5,space,0.4643942000111565,None,200,1,[1.7502082999853883],[1.7502358999918215],5,11,71,3,760.6160567000043,,760.6015060000063,760.6160567000043,761.6155633000017,761.6155633000017,761.6155633000017,762.0831150999875,space,0.4643942000111565,None,762.0838757999882,762.1826850666587,762.5070743999968,762.4775843000098,762.4781086000148,762.5070743999968,762.5070743999968,762.5070743999968,764.2581070000015,200,1,[1.7502082999853883],[1.7502358999918215],933458,001,2024-11-08_14h24.13.576,Intentional binding,2024.2.2,60.134171362712756,2024-11-08 14h24.22.450074 +0530,
0.1,1000,exp,72,0,6,space,0.40095470001688227,None,200,1,[1.6495986999943852],[1.6496135999914259],6,0,72,6,764.2733354000084,,764.2585652999987,764.2733354000084,765.2730177000049,765.2730177000049,765.2730177000049,765.6908330000006,space,0.40095470001688227,None,765.6916081999952,765.8058288666691,766.1313033000042,766.1045883999905,766.105100899993,766.1313033000042,766.1313033000042,766.1313033000042,767.7817622000002,200,1,[1.6495986999943852],[1.6496135999914259],933458,001,2024-11-08_14h24.13.576,Intentional binding,2024.2.2,60.134171362712756,2024-11-08 14h24.22.450074 +0530,
0.4,1000,exp,73,1,6,space,0.30325769999762997,None,300,1,[2.0335898000048473],[2.033606500015594],6,1,73,7,767.7973765000061,,767.7822124999948,767.7973765000061,768.7962244999944,768.7962244999944,768.8129105000116,769.1138826000097,space,0.30325769999762997,None,769.1146237000066,769.5129793666749,769.8374250000052,769.8167829000158,769.8173886000004,769.8374250000052,769.8374250000052,769.8374250000052,771.8718399000063,300,1,[2.0335898000048473],[2.033606500015594],933458,001,2024-11-08_14h24.13.576,Intentional binding,2024.2.2,60.134171362712756,2024-11-08 14h24.22.450074 +0530,
0.4,1000,exp,74,2,6,space,0.9629077000136022,None,200,1,[2.3499255999922752],[2.3499401999870315],6,2,74,4,771.8870771999937,,771.8722198999894,771.8870771999937,772.8861417000007,772.8861417000007,772.8861417000007,773.8538855999941,space,0.9629077000136022,None,773.8546637000109,774.2694962666758,774.5937163000053,774.5736820999882,774.5741792999906,774.5937163000053,774.5937163000053,774.5937163000053,776.9446113999875,200,1,[2.3499255999922752],[2.3499401999870315],933458,001,2024-11-08_14h24.13.576,Intentional binding,2024.2.2,60.134171362712756,2024-11-08 14h24.22.450074 +0530,
0.1,1000,exp,75,3,6,space,0.4273562000016682,None,300,1,[2.4065650000120513],[2.40657839999767],6,3,75,9,776.9601241000055,,776.9450118000095,776.9601241000055,777.9595578000008,777.9595578000008,777.9595578000008,778.3942329999991,space,0.4273562000016682,None,778.3950140000088,778.5096752666616,778.8338590000058,778.8085462999879,778.8092349999934,778.8338590000058,778.8338590000058,778.8338590000058,781.2411570000113,300,1,[2.4065650000120513],[2.40657839999767],933458,001,2024-11-08_14h24.13.576,Intentional binding,2024.2.2,60.134171362712756,2024-11-08 14h24.22.450074 +0530,
0.4,1000,exp,76,4,6,space,0.35651869999128394,None,200,1,[1.5335987999860663],[1.533614399988437],6,4,76,10,781.2563590999926,,781.2414605999948,781.2563590999926,782.256040200009,782.256040200009,782.256040200009,782.6229124999954,space,0.35651869999128394,None,782.623737899994,783.0220253666669,783.3466452000139,783.3203964999993,783.3208950000117,783.3466452000139,783.3466452000139,783.3466452000139,784.8810555000091,200,1,[1.5335987999860663],[1.533614399988437],933458,001,2024-11-08_14h24.13.576,Intentional binding,2024.2.2,60.134171362712756,2024-11-08 14h24.22.450074 +0530,
0.4,400,unexp,77,5,6,space,0.29140700001153164,None,300,1,[2.016310400009388],[2.016324900003383],6,5,77,1,784.8964466000034,,784.8814286999987,784.8964466000034,785.8956276999961,785.8956276999961,785.8956276999961,786.1963924000156,space,0.29140700001153164,None,786.1971415000153,786.5955473666584,786.9204481999914,786.8939646999934,786.8946162000066,786.9204481999914,786.9204481999914,786.9204481999914,788.9376595999929,300,1,[2.016310400009388],[2.016324900003383],933458,001,2024-11-08_14h24.13.576,Intentional binding,2024.2.2,60.134171362712756,2024-11-08 14h24.22.450074 +0530,
0.1,400,unexp,78,6,6,space,0.314259700011462,None,200,1,[1.948487399989972],[1.948502399987774],6,6,78,0,788.9529791999958,,788.9379904000089,788.9529791999958,789.9520301000157,789.9520301000157,789.9520301000157,790.2711415000085,space,0.314259700011462,None,790.2719365000085,790.385220166678,790.71169560001,790.6804881000135,790.6810160999885,790.71169560001,790.71169560001,790.71169560001,792.6609917999886,200,1,[1.948487399989972],[1.948502399987774],933458,001,2024-11-08_14h24.13.576,Intentional binding,2024.2.2,60.134171362712756,2024-11-08 14h24.22.450074 +0530,
0.7,1000,exp ,79,7,6,space,0.2883432999951765,None,200,1,[1.6500137000111863],[1.6500282000051811],6,7,79,8,792.6764558000141,,792.6613657000125,792.6764558000141,793.6757044999977,793.6757044999977,793.6757044999977,793.9771818000008,space,0.2883432999951765,None,793.9780772000086,794.6924771666565,795.0172301999992,794.9897587999876,794.9903160000104,795.0172301999992,795.0172301999992,795.0172301999992,796.6680974999908,200,1,[1.6500137000111863],[1.6500282000051811],933458,001,2024-11-08_14h24.13.576,Intentional binding,2024.2.2,60.134171362712756,2024-11-08 14h24.22.450074 +0530,
0.7,400,unexp,80,8,6,space,0.3043062000069767,None,300,1,[1.7002451999869663],[1.7002602999855299],6,8,80,2,796.6828524000011,,796.6684870999889,796.6828524000011,797.6825092000072,797.6825092000072,797.6825092000072,798.0000542000053,space,0.3043062000069767,None,798.0008112000069,798.7150418666754,799.0397825000109,799.011543200002,799.0120977000042,799.0397825000109,799.0397825000109,799.0397825000109,800.7409411999979,300,1,[1.7002451999869663],[1.7002602999855299],933458,001,2024-11-08_14h24.13.576,Intentional binding,2024.2.2,60.134171362712756,2024-11-08 14h24.22.450074 +0530,
0.7,1000,exp,81,9,6,space,0.5347628000017721,None,200,1,[1.3669077999948058],[1.366926799993962],6,9,81,11,800.7560852000024,,800.7413271999976,800.7560852000024,801.7557154000096,801.7557154000096,801.7557154000096,802.3068326000066,space,0.5347628000017721,None,802.3076416999975,803.0217357666736,803.347390800016,803.3204484000162,803.3210021000123,803.347390800016,803.347390800016,803.347390800016,804.7151130000129,200,1,[1.3669077999948058],[1.366926799993962],933458,001,2024-11-08_14h24.13.576,Intentional binding,2024.2.2,60.134171362712756,2024-11-08 14h24.22.450074 +0530,
0.1,1000,exp,82,10,6,space,0.5357898999936879,None,100,1,[1.6832134999858681],[1.6832281999813858],6,10,82,3,804.7294661999913,,804.7154543999932,804.7294661999913,805.7286221999966,805.7286221999966,805.7453049999895,806.2799677000148,space,0.5357898999936879,None,806.2807382000028,806.3950256666615,806.7202942000004,806.691404400015,806.6919723000028,806.7202942000004,806.7202942000004,806.7202942000004,808.404444499989,100,1,[1.6832134999858681],[1.6832281999813858],933458,001,2024-11-08_14h24.13.576,Intentional binding,2024.2.2,60.134171362712756,2024-11-08 14h24.22.450074 +0530,
0.7,1000,exp,83,11,6,space,0.2304706000140868,None,200,1,[1.3503965999989305],[1.3504122000013012],6,11,83,5,808.4196462999971,,808.4048438000027,808.4196462999971,809.419655900012,809.419655900012,809.419655900012,809.6534126999904,space,0.2304706000140868,None,809.6541952000116,810.3687395666823,810.6935190999939,810.6698295999959,810.6703495999973,810.6935190999939,810.6935190999939,810.6935190999939,812.0448107999982,200,1,[1.3503965999989305],[1.3504122000013012],933458,001,2024-11-08_14h24.13.576,Intentional binding,2024.2.2,60.134171362712756,2024-11-08 14h24.22.450074 +0530,
0.1,400,unexp,84,0,7,space,0.47204490000149235,None,300,1,[2.566216900013387],[2.566235100006452],7,0,84,0,812.0594808000023,,812.0452454999904,812.0594808000023,813.0588938000146,813.0588938000146,813.0588938000146,813.5431574000104,space,0.47204490000149235,None,813.5438982000051,813.6585907666633,813.983427500003,813.9551166000019,813.9556444000045,813.983427500003,813.983427500003,813.983427500003,816.5506549999991,300,1,[2.566216900013387],[2.566235100006452],933458,001,2024-11-08_14h24.13.576,Intentional binding,2024.2.2,60.134171362712756,2024-11-08 14h24.22.450074 +0530,
0.1,1000,exp,85,1,7,space,0.35380300000542775,None,300,1,[2.715745399997104],[2.715760599996429],7,1,85,9,816.5657582000131,,816.5510826999962,816.5657582000131,817.5655707000114,817.5655707000114,817.5655707000114,817.9333892000141,space,0.35380300000542775,None,817.9341777999944,818.048146566671,818.3736612999928,818.350198900007,818.3507451000041,818.3736612999928,818.3736612999928,818.3736612999928,821.0903407000005,300,1,[2.715745399997104],[2.715760599996429],933458,001,2024-11-08_14h24.13.576,Intentional binding,2024.2.2,60.134171362712756,2024-11-08 14h24.22.450074 +0530,
0.7,1000,exp,86,2,7,space,0.260679800005164,None,200,1,[1.20002590000513],[1.2000404999998864],7,2,86,11,821.1055021999928,,821.0908027999976,821.1055021999928,822.1048922000045,822.1048922000045,822.1048922000045,822.3725606999942,space,0.260679800005164,None,822.3734273000155,823.0882320666608,823.4130535000004,823.3846314999973,823.3861995000043,823.4130535000004,823.4130535000004,823.4130535000004,824.6138730999955,200,1,[1.20002590000513],[1.2000404999998864],933458,001,2024-11-08_14h24.13.576,Intentional binding,2024.2.2,60.134171362712756,2024-11-08 14h24.22.450074 +0530,
0.7,400,unexp,87,3,7,space,0.9826139000069816,None,200,1,[1.78243890000158],[1.782452999992529],7,3,87,2,824.6292022000125,,824.614249700011,824.6292022000125,825.6292025000148,825.6292025000148,825.6292025000148,826.6288397999888,space,0.9826139000069816,None,826.6296204999962,827.3442650666732,827.6703896000108,827.6403234000027,827.6408148999908,827.6703896000108,827.6703896000108,827.6703896000108,829.453782800003,200,1,[1.78243890000158],[1.782452999992529],933458,001,2024-11-08_14h24.13.576,Intentional binding,2024.2.2,60.134171362712756,2024-11-08 14h24.22.450074 +0530,
0.7,1000,exp ,88,4,7,space,0.45044200000120327,None,100,1,[1.5675929999852087],[1.5676033000054304],7,4,88,8,829.468706899992,,829.4540955999983,829.468706899992,830.4682704000152,830.4682704000152,830.4682704000152,830.9353574000124,space,0.45044200000120327,None,830.9361547000008,831.6507592666642,831.9756231000065,831.949787599995,831.9502991999907,831.9756231000065,831.9756231000065,831.9756231000065,833.5438627999974,100,1,[1.5675929999852087],[1.5676033000054304],933458,001,2024-11-08_14h24.13.576,Intentional binding,2024.2.2,60.134171362712756,2024-11-08 14h24.22.450074 +0530,
0.7,1000,exp,89,5,7,space,0.42705759999807924,None,200,1,[1.5659486000076868],[1.5659637000062503],7,5,89,5,833.5588335999928,,833.5441988999955,833.5588335999928,834.5582698000071,834.5582698000071,834.5582698000071,834.9927064999938,space,0.42705759999807924,None,834.9934601999994,835.707654766655,836.0333895999938,836.0031374999962,836.0036131000088,836.0333895999938,836.0333895999938,836.0333895999938,837.6001884000143,200,1,[1.5659486000076868],[1.5659637000062503],933458,001,2024-11-08_14h24.13.576,Intentional binding,2024.2.2,60.134171362712756,2024-11-08 14h24.22.450074 +0530,
0.4,1000,exp,90,6,7,space,0.6108112999936566,None,200,1,[4.148631000018213],[4.148645900015254],7,6,90,10,837.615621600009,,837.6005678999936,837.615621600009,838.6157263999921,838.6157263999921,838.6157263999921,839.2325786000001,space,0.6108112999936566,None,839.2333462999959,839.6482308666784,839.972597200016,839.9498366999906,839.9503465000016,839.972597200016,839.972597200016,839.972597200016,844.1221326999948,200,1,[4.148631000018213],[4.148645900015254],933458,001,2024-11-08_14h24.13.576,Intentional binding,2024.2.2,60.134171362712756,2024-11-08 14h24.22.450074 +0530,
0.1,1000,exp,91,7,7,space,7.5518644000112545,None,200,1,[1.6498332000046503],[1.6498507999931462],7,7,91,3,844.137538400013,,844.1225712999876,844.137538400013,845.1370609000151,845.1370609000151,845.1370609000151,852.7019317999948,space,7.5518644000112545,None,852.7026732999948,852.817204266674,853.1420244000037,853.1178033000033,853.1182689999987,853.1420244000037,853.1420244000037,853.1420244000037,854.7927884999954,200,1,[1.6498332000046503],[1.6498507999931462],933458,001,2024-11-08_14h24.13.576,Intentional binding,2024.2.2,60.134171362712756,2024-11-08 14h24.22.450074 +0530,
0.4,400,unexp,92,8,7,space,0.2757508000067901,None,300,1,[1.4833185999887064],[1.4833423999953084],7,8,92,1,854.8080223000143,,854.7931630999956,854.8080223000143,855.8073896999995,855.8073896999995,855.8073896999995,856.0917106000124,space,0.2757508000067901,None,856.0925005000026,856.5070621666712,856.8321581000055,856.8086203999992,856.8091589999967,856.8321581000055,856.8321581000055,856.8321581000055,858.3165143000078,300,1,[1.4833185999887064],[1.4833423999953084],933458,001,2024-11-08_14h24.13.576,Intentional binding,2024.2.2,60.134171362712756,2024-11-08 14h24.22.450074 +0530,
0.1,1000,exp,93,9,7,space,0.3674364000034984,None,200,1,[2.3995226999977604],[2.399533199990401],7,9,93,6,858.3315086000075,,858.316923300008,858.3315086000075,859.3308086000034,859.3308086000034,859.3308086000034,859.7154865000048,space,0.3674364000034984,None,859.716462100012,859.8146298666582,860.138993600005,860.1149356999958,860.115478599997,860.138993600005,860.138993600005,860.138993600005,862.5394418000069,200,1,[2.3995226999977604],[2.399533199990401],933458,001,2024-11-08_14h24.13.576,Intentional binding,2024.2.2,60.134171362712756,2024-11-08 14h24.22.450074 +0530,
0.4,1000,exp,94,10,7,space,0.0932813000108581,None,100,1,[1.5336499999975786],[1.5336640999885276],7,10,94,4,862.5550887999998,,862.5398415999953,862.5550887999998,863.5540870999976,863.5540870999976,863.5540870999976,863.6551824999915,space,0.0932813000108581,None,863.656005900004,864.0706418666562,864.3960809000127,864.3710983000055,864.3716443000012,864.3960809000127,864.3960809000127,864.3960809000127,865.9305651999894,100,1,[1.5336499999975786],[1.5336640999885276],933458,001,2024-11-08_14h24.13.576,Intentional binding,2024.2.2,60.134171362712756,2024-11-08 14h24.22.450074 +0530,
0.4,1000,exp,95,11,7,space,0.23273620000691153,None,200,1,[1.450259700010065],[1.4502746000071056],7,11,95,7,865.945669800014,,865.9309422000078,865.945669800014,866.9447420999932,866.9447420999932,866.9447420999932,867.1798405000009,space,0.23273620000691153,None,867.180592299992,867.5944274666583,867.9191704000114,867.8915613999998,867.8921199000033,867.9191704000114,867.9191704000114,867.9191704000114,869.3702280000143,200,1,[1.450259700010065],[1.4502746000071056],933458,001,2024-11-08_14h24.13.576,Intentional binding,2024.2.2,60.134171362712756,2024-11-08 14h24.22.450074 +0530,
0.4,1000,exp,96,0,8,space,0.5350531000003684,None,200,1,[1.6345380999846384],[1.6345557000022382],8,0,96,7,869.3854053000105,,869.3706139000133,869.3854053000105,870.3847376999911,870.3847376999911,870.3847376999911,870.9355743000051,space,0.5350531000003684,None,870.9364778000163,871.3511016666637,871.6603516000032,871.6459144999972,871.6465240000107,871.6603516000032,871.6603516000032,871.6603516000032,873.2957370000076,200,1,[1.6345380999846384],[1.6345557000022382],933458,001,2024-11-08_14h24.13.576,Intentional binding,2024.2.2,60.134171362712756,2024-11-08 14h24.22.450074 +0530,
0.1,1000,exp,97,1,8,space,0.44428230001358315,None,200,1,[1.6503867999999784],[1.6504025000031106],8,1,97,3,873.3107107999967,,873.2961122000124,873.3107107999967,874.3097875000094,874.3097875000094,874.3097875000094,874.7610415999952,space,0.44428230001358315,None,874.7617823999899,874.8763176666728,875.1926741999923,875.1763824000082,875.1768876000133,875.1926741999923,875.1926741999923,875.1926741999923,876.8438283000141,200,1,[1.6503867999999784],[1.6504025000031106],933458,001,2024-11-08_14h24.13.576,Intentional binding,2024.2.2,60.134171362712756,2024-11-08 14h24.22.450074 +0530,
0.4,1000,exp,98,2,8,space,0.15026120000402443,None,200,1,[2.4170157999906223],[2.417029999982333],8,2,98,10,876.8589509000012,,876.8442070000165,876.8589509000012,877.8585621000093,877.8585621000093,877.8585621000093,878.0264915000007,space,0.15026120000402443,None,878.0272436999949,878.4415110666635,878.7669843999902,878.7394394000003,878.7399649000145,878.7669843999902,878.7669843999902,878.7669843999902,881.1848862000043,200,1,[2.4170157999906223],[2.417029999982333],933458,001,2024-11-08_14h24.13.576,Intentional binding,2024.2.2,60.134171362712756,2024-11-08 14h24.22.450074 +0530,
0.1,1000,exp,99,3,8,space,0.21462039998732507,None,200,1,[1.5669988000008743],[1.5670132999948692],8,3,99,6,881.200390300015,,881.1852917000069,881.200390300015,882.199749899999,882.199749899999,882.199749899999,882.4174557999941,space,0.21462039998732507,None,882.4181836000062,882.5168449666564,882.8411551000027,882.8140251000004,882.8145649000071,882.8411551000027,882.8411551000027,882.8411551000027,884.4090164999943,200,1,[1.5669988000008743],[1.5670132999948692],933458,001,2024-11-08_14h24.13.576,Intentional binding,2024.2.2,60.134171362712756,2024-11-08 14h24.22.450074 +0530,
0.7,400,unexp,100,4,8,space,0.32966119999764487,None,100,1,[1.3504457000235561],[1.350461299996823],8,4,100,2,884.4250979000062,,884.4093978000164,884.4250979000062,885.4233029999887,885.4233029999887,885.4401858999918,885.7579339999938,space,0.32966119999764487,None,885.7586884000048,886.4727727666652,886.7978704000125,886.771207999991,886.7727910999965,886.7978704000125,886.7978704000125,886.7978704000125,888.1492283999978,100,1,[1.3504457000235561],[1.350461299996823],933458,001,2024-11-08_14h24.13.576,Intentional binding,2024.2.2,60.134171362712756,2024-11-08 14h24.22.450074 +0530,
0.7,1000,exp,101,5,8,space,0.6248216000094544,None,100,1,[1.466982599988114],[1.466997799987439],8,5,101,5,888.1640706000035,,888.1496274000092,888.1640706000035,889.1639490000089,889.1639490000089,889.1639490000089,889.7974748999986,space,0.6248216000094544,None,889.7982440000051,890.5127351666781,890.8380295000097,890.8138141999952,890.8143491999945,890.8380295000097,890.8380295000097,890.8380295000097,892.3058235000062,100,1,[1.466982599988114],[1.466997799987439],933458,001,2024-11-08_14h24.13.576,Intentional binding,2024.2.2,60.134171362712756,2024-11-08 14h24.22.450074 +0530,
0.1,1000,exp,102,6,8,space,0.3182383999810554,None,200,1,[1.9000503999996],[1.900067799986573],8,6,102,9,892.3204970000079,,892.3061971999996,892.3204970000079,893.3199624000117,893.3199624000117,893.3199624000117,893.6543145999894,space,0.3182383999810554,None,893.655165300006,893.7697198666613,894.0951816999877,894.0673139000137,894.0678380999889,894.0951816999877,894.0951816999877,894.0951816999877,895.9961113999889,200,1,[1.9000503999996],[1.900067799986573],933458,001,2024-11-08_14h24.13.576,Intentional binding,2024.2.2,60.134171362712756,2024-11-08 14h24.22.450074 +0530,
0.7,1000,exp ,103,7,8,space,0.41629270001430996,None,200,1,[1.516616700013401],[1.516631700011203],8,7,103,8,896.0109333000146,,895.9965246999927,896.0109333000146,897.0101402,897.0101402,897.0101402,897.4287799999875,space,0.41629270001430996,None,897.4296049000113,898.1427661666569,898.468019699998,898.4405689999985,898.4411229999969,898.468019699998,898.468019699998,898.468019699998,899.985560400004,200,1,[1.516616700013401],[1.516631700011203],933458,001,2024-11-08_14h24.13.576,Intentional binding,2024.2.2,60.134171362712756,2024-11-08 14h24.22.450074 +0530,
0.7,1000,exp,104,8,8,space,0.4291426000127103,None,100,1,[2.1670036999857984],[2.167018999985885],8,8,104,11,900.0006449999928,,899.9859681999951,900.0006449999928,900.9998474000022,900.9998474000022,900.9998474000022,901.4348084999947,space,0.4291426000127103,None,901.4355712000106,902.1493778666811,902.4742282000079,902.4514037999907,902.4519360999984,902.4742282000079,902.4742282000079,902.4742282000079,904.6420519000094,100,1,[2.1670036999857984],[2.167018999985885],933458,001,2024-11-08_14h24.13.576,Intentional binding,2024.2.2,60.134171362712756,2024-11-08 14h24.22.450074 +0530,
0.4,400,unexp,105,9,8,space,0.2828043000190519,None,300,1,[2.4153679000155535],[2.4153831000148784],8,9,105,1,904.6574887000024,,904.6424434999935,904.6574887000024,905.656572500011,905.656572500011,905.672854000004,905.9412153000012,space,0.2828043000190519,None,905.9420615000126,906.3558844666734,906.6816841000109,906.6536598000093,906.6542287000048,906.6816841000109,906.6816841000109,906.6816841000109,909.0980444000161,300,1,[2.4153679000155535],[2.4153831000148784],933458,001,2024-11-08_14h24.13.576,Intentional binding,2024.2.2,60.134171362712756,2024-11-08 14h24.22.450074 +0530,
0.1,400,unexp,106,10,8,,,,,,,,8,10,106,0,909.113346099999,,909.0984606000129,909.113346099999,,,,,,,,,,,,,,,,,,,,,,,,,,,,
