delay,freq,condition,thisN,thisTrialN,thisRepN,key_resp.keys,key_resp.rt,key_resp.duration,textbox.text,button.numClicks,button.timesOn,button.timesOff,trials.thisRepN,trials.thisTrialN,trials.thisN,trials.thisIndex,thisRow.t,notes,trial.started,polygon.started,polygon_2.started,key_resp.started,polygon.stopped,trial.stopped,trials.key_resp.keys,trials.key_resp.rt,trials.key_resp.duration,beeb.started,sound_1.started,sound_1.stopped,beeb.stopped,response.started,text.started,textbox.started,button.started,response.stopped,trials.textbox.text,trials.button.numClicks,trials.button.timesOn,trials.button.timesOff,participant,session,date,expName,psychopyVersion,frameRate,expStart,
0.1,1000,exp,0,0,0,space,1.5291191000142135,None,200,1,[2.2107185999921057],[2.2107306999969296],0,0,0,9,0.07247530002496205,,0.05840180002269335,0.07247530002496205,1.0056631000188645,1.0056631000188645,1.0730624000134412,2.5458921000245027,space,1.5291191000142135,None,2.546866700024111,2.655190666675723,2.9806960000132676,2.9575551000016276,2.9585640000004787,2.9806960000132676,2.9806960000132676,2.9806960000132676,5.192226300016046,200,1,[2.2107185999921057],[2.2107306999969296],098364,001,2024-11-08_14h13.56.961,Intentional binding,2024.2.2,59.892720155064744,2024-11-08 14h14.06.892450 +0530,
0.1,1000,exp,1,1,0,space,1.2653682999953162,None,100,1,[2.8983658000070136],[2.8983869000221603],0,1,1,3,5.207817100017564,,5.192603200004669,5.207817100017564,6.207169500004966,6.207169500004966,6.207169500004966,7.474852200015448,space,1.2653682999953162,None,7.475763000024017,7.590216466666122,7.899691200000234,7.885244800010696,7.88577280001482,7.899691200000234,7.899691200000234,7.899691200000234,10.798809700005222,100,1,[2.8983658000070136],[2.8983869000221603],098364,001,2024-11-08_14h13.56.961,Intentional binding,2024.2.2,59.892720155064744,2024-11-08 14h14.06.892450 +0530,
0.7,1000,exp,2,2,0,space,1.0433642999851145,None,"200
",1,[4.652068800001871],[4.6520836999989115],0,2,2,11,10.81358290000935,,10.79911200000788,10.81358290000935,11.814429700025357,11.814429700025357,11.814429700025357,12.86433880002005,space,1.0433642999851145,None,12.865235000004759,13.579584666677208,13.904040499997791,13.879820000001928,13.880673100007698,13.904040499997791,13.904040499997791,13.904040499997791,18.556985000002896,"200
",1,[4.652068800001871],[4.6520836999989115],098364,001,2024-11-08_14h13.56.961,Intentional binding,2024.2.2,59.892720155064744,2024-11-08 14h14.06.892450 +0530,
0.1,400,unexp,3,3,0,space,0.9352707999933045,None,300,1,[2.541369400016265],[2.5413959000143223],0,3,3,0,18.572387300024275,,18.557386500004213,18.572387300024275,19.5723730000027,19.5723730000027,19.5723730000027,20.52298590002465,space,0.9352707999933045,None,20.52375250001205,20.638315666674558,20.962833400000818,20.941214500024216,20.94180710002547,20.962833400000818,20.962833400000818,20.962833400000818,23.505142000009073,300,1,[2.541369400016265],[2.5413959000143223],098364,001,2024-11-08_14h13.56.961,Intentional binding,2024.2.2,59.892720155064744,2024-11-08 14h14.06.892450 +0530,
0.7,1000,exp,4,4,0,space,0.5688396999903489,None,300,1,[1.6666990999947302],[1.66671670001233],0,4,4,5,23.519475100009004,,23.505524100008188,23.519475100009004,24.519304000015836,24.519304000015836,24.519304000015836,25.103795400005765,space,0.5688396999903489,None,25.10455990000628,25.818855466674236,26.1440494999988,26.11466340001789,26.11518180000712,26.1440494999988,26.1440494999988,26.1440494999988,27.81147340001189,300,1,[1.6666990999947302],[1.66671670001233],098364,001,2024-11-08_14h13.56.961,Intentional binding,2024.2.2,59.892720155064744,2024-11-08 14h14.06.892450 +0530,
0.4,1000,exp,5,5,0,space,1.357994799996959,None,,1,[0.4511872000002768],[0.4511982999974862],0,5,5,7,27.826110900001368,,27.811870400008047,27.826110900001368,28.825384000025224,28.825384000025224,28.825384000025224,30.192567200021585,space,1.357994799996959,None,30.1933629999985,30.608713066674923,30.93315930000972,30.9037432000041,30.904647700022906,30.93315930000972,30.93315930000972,30.93315930000972,31.38513170002261,,1,[0.4511872000002768],[0.4511982999974862],098364,001,2024-11-08_14h13.56.961,Intentional binding,2024.2.2,59.892720155064744,2024-11-08 14h14.06.892450 +0530,
0.4,1000,exp,6,6,0,space,2.0767652000067756,None,100,1,[4.715661700000055],[4.715676200023154],0,6,6,10,31.399896200018702,,31.385519900009967,31.399896200018702,32.400355200021295,32.400355200021295,32.400355200021295,34.482918900001096,space,2.0767652000067756,None,34.48366570001235,34.89828736667211,35.2230785000138,35.20229400001699,35.20277450000867,35.2230785000138,35.2230785000138,35.2230785000138,39.93963690000237,100,1,[4.715661700000055],[4.715676200023154],098364,001,2024-11-08_14h13.56.961,Intentional binding,2024.2.2,59.892720155064744,2024-11-08 14h14.06.892450 +0530,
0.4,400,unexp,7,7,0,space,0.6855635999818332,None,200,1,[2.221335899987025],[2.221349300001748],0,7,7,1,39.95495780001511,,39.9401222000015,39.95495780001511,40.954266700020526,40.954266700020526,40.954266700020526,41.65483290000702,space,0.6855635999818332,None,41.65569179999875,42.07010056666719,42.39509289999842,42.370519500022056,42.37109770000097,42.39509289999842,42.39509289999842,42.39509289999842,44.6173298000067,200,1,[2.221335899987025],[2.221349300001748],098364,001,2024-11-08_14h13.56.961,Intentional binding,2024.2.2,59.892720155064744,2024-11-08 14h14.06.892450 +0530,
0.1,1000,exp,8,8,0,space,0.5091248000098858,None,200,1,[3.183284900005674],[3.1832985000219196],0,8,8,6,44.632659399998374,,44.617752500023926,44.632659399998374,45.632090200000675,45.632090200000675,45.632090200000675,46.15023110000766,space,0.5091248000098858,None,46.151070400024764,46.26556036668286,46.590457000012975,46.56238860002486,46.562907100014854,46.590457000012975,46.590457000012975,46.590457000012975,49.77461170000606,200,1,[3.183284900005674],[3.1832985000219196],098364,001,2024-11-08_14h13.56.961,Intentional binding,2024.2.2,59.892720155064744,2024-11-08 14h14.06.892450 +0530,
0.7,1000,exp ,9,9,0,space,0.9235803000046872,None,300,1,[2.1334030000143684],[2.133414100011578],0,9,9,8,49.789944600022864,,49.775017300009495,49.789944600022864,50.78930940001737,50.78930940001737,50.78930940001737,51.72373350002454,space,0.9235803000046872,None,51.724536399997305,52.43890976667559,52.76352210002369,52.73856820000219,52.73910080001224,52.76352210002369,52.76352210002369,52.76352210002369,54.89774570000009,300,1,[2.1334030000143684],[2.133414100011578],098364,001,2024-11-08_14h13.56.961,Intentional binding,2024.2.2,59.892720155064744,2024-11-08 14h14.06.892450 +0530,
0.7,400,unexp,10,10,0,space,1.4201866000075825,None,200,1,[1.517669199994998],[1.517684599995846],0,10,10,2,54.91311439999845,,54.89821540002595,54.91311439999845,55.912578000017675,55.912578000017675,55.912578000017675,57.346659600007115,space,1.4201866000075825,None,57.347706200001994,58.061596566669564,58.386695499997586,58.35982650000369,58.36031850002473,58.386695499997586,58.386695499997586,58.386695499997586,59.90520610002568,200,1,[1.517669199994998],[1.517684599995846],098364,001,2024-11-08_14h13.56.961,Intentional binding,2024.2.2,59.892720155064744,2024-11-08 14h14.06.892450 +0530,
0.4,1000,exp,11,11,0,space,0.5319049000099767,None,300,1,[1.6830238999973517],[1.6830344000190962],0,11,11,4,59.92032710000058,,59.90561410001828,59.92032710000058,60.92015760001959,60.92015760001959,60.92015760001959,61.454146600008244,space,0.5319049000099767,None,61.454898299998604,61.8690277666649,62.19407840000349,62.16781990000163,62.168288500019116,62.19407840000349,62.19407840000349,62.19407840000349,63.87794730000314,300,1,[1.6830238999973517],[1.6830344000190962],098364,001,2024-11-08_14h13.56.961,Intentional binding,2024.2.2,59.892720155064744,2024-11-08 14h14.06.892450 +0530,
0.1,400,unexp,12,0,1,space,0.8726911999983713,None,200,1,[1.6162786999775562],[1.6162893000000622],1,0,12,0,63.8935230000061,,63.878346800018335,63.8935230000061,64.87670670001535,64.87670670001535,64.89332200001809,65.76061379999737,space,0.8726911999983713,None,65.76156650000485,65.87585706668712,66.20107870001812,66.17862600000808,66.17919059999986,66.20107870001812,66.20107870001812,66.20107870001812,67.81819930000347,200,1,[1.6162786999775562],[1.6162893000000622],098364,001,2024-11-08_14h13.56.961,Intentional binding,2024.2.2,59.892720155064744,2024-11-08 14h14.06.892450 +0530,
0.7,1000,exp ,13,1,1,space,1.1432827000098769,None,300,1,[1.466377900011139],[1.4663938000157941],1,1,13,8,67.83366970001953,,67.81850700001814,67.83366970001953,68.83317290002014,68.83317290002014,68.83317290002014,69.98358660002123,space,1.1432827000098769,None,69.9843468000181,70.69954356667974,71.02500120000332,70.99976850001258,71.00027800002135,71.02500120000332,71.02500120000332,71.02500120000332,72.49227129999781,300,1,[1.466377900011139],[1.4663938000157941],098364,001,2024-11-08_14h13.56.961,Intentional binding,2024.2.2,59.892720155064744,2024-11-08 14h14.06.892450 +0530,
0.1,1000,exp,14,2,1,space,1.2989302999922074,None,200,1,[3.332336099992972],[3.3323493000061717],1,2,14,6,72.50706010000431,,72.49266960000386,72.50706010000431,73.50628870000946,73.50628870000946,73.50628870000946,74.80769660000806,space,1.2989302999922074,None,74.80845630000113,74.92276396666809,75.24803139999858,75.22401090001222,75.22463510002126,75.24803139999858,75.24803139999858,75.24803139999858,78.58118239999749,200,1,[3.332336099992972],[3.3323493000061717],098364,001,2024-11-08_14h13.56.961,Intentional binding,2024.2.2,59.892720155064744,2024-11-08 14h14.06.892450 +0530,
0.1,1000,exp,15,3,1,space,1.564325999992434,None,100,1,[1.550638099986827],[1.5506536999891978],1,3,15,9,78.59613620000891,,78.58156680001412,78.59613620000891,79.5955135000113,79.5955135000113,79.5955135000113,81.1625632000214,space,1.564325999992434,None,81.16335220000474,81.27812856668994,81.6032172999985,81.58126600002288,81.58181480001076,81.6032172999985,81.6032172999985,81.6032172999985,83.15471920001437,100,1,[1.550638099986827],[1.5506536999891978],098364,001,2024-11-08_14h13.56.961,Intentional binding,2024.2.2,59.892720155064744,2024-11-08 14h14.06.892450 +0530,
0.4,1000,exp,16,4,1,space,0.9824881000095047,None,200,1,[4.7332360000000335],[4.733246300020255],1,4,16,10,83.16937730001519,,83.1550296000205,83.16937730001519,84.16876410000259,84.16876410000259,84.16876410000259,85.15356940001948,space,0.9824881000095047,None,85.1545556000201,85.56849706668096,85.89309009999852,85.8690638000262,85.86970540002221,85.89309009999852,85.89309009999852,85.89309009999852,90.62709120000363,200,1,[4.7332360000000335],[4.733246300020255],098364,001,2024-11-08_14h13.56.961,Intentional binding,2024.2.2,59.892720155064744,2024-11-08 14h14.06.892450 +0530,
0.4,1000,exp,17,5,1,space,0.4788414999784436,None,300,1,[1.5168771999888122],[1.5168881000136025],1,5,17,4,90.642663000006,,90.62739730000612,90.642663000006,91.64196060001268,91.64196060001268,91.64196060001268,92.12718720000703,space,0.4788414999784436,None,92.12821710002027,92.54214166666885,92.86658660002286,92.84556460002204,92.8461238000018,92.86658660002286,92.86658660002286,92.86658660002286,94.38424189999932,300,1,[1.5168771999888122],[1.5168881000136025],098364,001,2024-11-08_14h13.56.961,Intentional binding,2024.2.2,59.892720155064744,2024-11-08 14h14.06.892450 +0530,
0.4,1000,exp,18,6,1,space,1.325163600005908,None,100,1,[1.5164194999961182],[1.516435099998489],1,6,18,7,94.40003430002253,,94.3845509000239,94.40003430002253,95.39977180000278,95.39977180000278,95.39977180000278,96.73384440000518,space,1.325163600005908,None,96.73471790002077,97.14890556666457,97.47377219999908,97.44931260001613,97.44983030000003,97.47377219999908,97.47377219999908,97.47377219999908,98.9911257000058,100,1,[1.5164194999961182],[1.516435099998489],098364,001,2024-11-08_14h13.56.961,Intentional binding,2024.2.2,59.892720155064744,2024-11-08 14h14.06.892450 +0530,
0.4,400,unexp,19,7,1,space,1.0311249000078533,None,200,1,[2.332353800011333],[2.3323665000207257],1,7,19,1,99.00658590000239,,98.99150630002259,99.00658590000239,100.00571640001726,100.00571640001726,100.00571640001726,101.04018270000233,space,1.0311249000078533,None,101.0409499000234,101.4550374666908,101.78024870000081,101.75170390002313,101.75218840001617,101.78024870000081,101.78024870000081,101.78024870000081,104.1135661000153,200,1,[2.332353800011333],[2.3323665000207257],098364,001,2024-11-08_14h13.56.961,Intentional binding,2024.2.2,59.892720155064744,2024-11-08 14h14.06.892450 +0530,
0.7,400,unexp,20,8,1,space,0.3905398999922909,None,200,1,[4.615199399995618],[4.615212599979714],1,8,20,2,104.12895150002441,,104.11389040001086,104.12895150002441,105.12844290002249,105.12844290002249,105.12844290002249,105.52960220002569,space,0.3905398999922909,None,105.53035580000142,106.24474836668038,106.56944400002249,106.54111489999923,106.54165020000073,106.56944400002249,106.56944400002249,106.56944400002249,111.18558300001314,200,1,[4.615199399995618],[4.615212599979714],098364,001,2024-11-08_14h13.56.961,Intentional binding,2024.2.2,59.892720155064744,2024-11-08 14h14.06.892450 +0530,
0.1,1000,exp,21,9,1,space,1.194110999989789,None,200,1,[1.866780899988953],[1.8667919999861624],1,9,21,3,111.20104490002268,,111.18589630001225,111.20104490002268,112.20054720001644,112.20054720001644,112.20054720001644,113.40131549999933,space,1.194110999989789,None,113.40214710001601,113.51663046668206,113.84162440002547,113.81596130001708,113.8166769000236,113.84162440002547,113.84162440002547,113.84162440002547,115.70923990002484,200,1,[1.866780899988953],[1.8667919999861624],098364,001,2024-11-08_14h13.56.961,Intentional binding,2024.2.2,59.892720155064744,2024-11-08 14h14.06.892450 +0530,
0.7,1000,exp,22,10,1,space,0.5923954000172671,None,300,1,[1.6998029999958817],[1.6998135999892838],1,10,22,5,115.72475130000385,,115.709551500011,115.72475130000385,116.72413750001579,116.72413750001579,116.72413750001579,117.32491970001138,space,0.5923954000172671,None,117.32573310000589,118.04051936668499,118.36515350002446,118.33869180001784,118.33925900000031,118.36515350002446,118.36515350002446,118.36515350002446,120.06574150000233,300,1,[1.6998029999958817],[1.6998135999892838],098364,001,2024-11-08_14h13.56.961,Intentional binding,2024.2.2,59.892720155064744,2024-11-08 14h14.06.892450 +0530,
0.7,1000,exp,23,11,1,space,0.6200886000005994,None,300,1,[2.715897300018696],[2.7159157000132836],1,11,23,11,120.08124540001154,,120.0661364000116,120.08124540001154,121.08048990002135,121.08048990002135,121.08048990002135,121.71506560000125,space,0.6200886000005994,None,121.7158365000214,122.43067376668138,122.75524940001196,122.73299300001236,122.73349770001369,122.75524940001196,122.75524940001196,122.75524940001196,125.4722829000093,300,1,[2.715897300018696],[2.7159157000132836],098364,001,2024-11-08_14h13.56.961,Intentional binding,2024.2.2,59.892720155064744,2024-11-08 14h14.06.892450 +0530,
0.1,1000,exp,24,0,2,space,0.700391899998067,None,200,1,[2.4999735000019427],[2.4999881999974605],2,0,24,6,125.48719040001743,,125.47268590002204,125.48719040001743,126.48692049999954,126.48692049999954,126.48692049999954,127.20432760001859,space,0.700391899998067,None,127.20517560001463,127.31958876667001,127.64466160000302,127.61841600001208,127.61892220002483,127.64466160000302,127.64466160000302,127.64466160000302,130.14548540001852,200,1,[2.4999735000019427],[2.4999881999974605],098364,001,2024-11-08_14h13.56.961,Intentional binding,2024.2.2,59.892720155064744,2024-11-08 14h14.06.892450 +0530,
0.1,1000,exp,25,1,2,space,0.7607543999911286,None,200,1,[1.816277000005357],[1.8162948999961372],2,1,25,3,130.16036880001775,,130.14593840000452,130.16036880001775,131.16073390000383,131.16073390000383,131.16073390000383,131.92790790001163,space,0.7607543999911286,None,131.92881370001123,132.04324526669032,132.36798740000813,132.34395890001906,132.34451819999958,132.36798740000813,132.36798740000813,132.36798740000813,134.18503600000986,200,1,[1.816277000005357],[1.8162948999961372],098364,001,2024-11-08_14h13.56.961,Intentional binding,2024.2.2,59.892720155064744,2024-11-08 14h14.06.892450 +0530,
0.4,400,unexp,26,2,2,space,0.818855599995004,None,300,1,[1.682621799991466],[1.682631899981061],2,2,26,1,134.20039550002548,,134.18542049999814,134.20039550002548,135.1997592000116,135.1997592000116,135.1997592000116,136.03495490000932,space,0.818855599995004,None,136.03576230001636,136.44937996668548,136.77460610002163,136.74904260001495,136.74951829999918,136.77460610002163,136.77460610002163,136.77460610002163,138.4580299000081,300,1,[1.682621799991466],[1.682631899981061],098364,001,2024-11-08_14h13.56.961,Intentional binding,2024.2.2,59.892720155064744,2024-11-08 14h14.06.892450 +0530,
0.4,1000,exp,27,3,2,space,1.1286588000075426,None,200,1,[1.5326935999910347],[1.5327038000104949],2,3,27,10,138.47353630000725,,138.45834199999808,138.47353630000725,139.47278270000243,139.47278270000243,139.47278270000243,140.60753090001526,space,1.1286588000075426,None,140.60831340000732,141.02224286666413,141.34753250001813,141.32525840000017,141.3257416000124,141.34753250001813,141.34753250001813,141.34753250001813,142.8810793000157,200,1,[1.5326935999910347],[1.5327038000104949],098364,001,2024-11-08_14h13.56.961,Intentional binding,2024.2.2,59.892720155064744,2024-11-08 14h14.06.892450 +0530,
0.1,1000,exp,28,4,2,space,0.6663053999945987,None,200,1,[2.449821999995038],[2.449840999994194],2,4,28,9,142.89666870000656,,142.88153590000002,142.89666870000656,143.8962580000225,143.8962580000225,143.8962580000225,144.56462760001887,space,0.6663053999945987,None,144.56544730000314,144.6793203666787,145.00388600002043,144.97972270002356,144.98025730001973,145.00388600002043,145.00388600002043,145.00388600002043,147.45478690002346,200,1,[2.449821999995038],[2.449840999994194],098364,001,2024-11-08_14h13.56.961,Intentional binding,2024.2.2,59.892720155064744,2024-11-08 14h14.06.892450 +0530,
0.7,1000,exp ,29,5,2,space,0.4376864000223577,None,300,1,[2.0334408000053372],[2.0334548999962863],2,5,29,8,147.469637400005,,147.45522520001396,147.469637400005,148.46941099999822,148.46941099999822,148.46941099999822,148.92127230000915,space,0.4376864000223577,None,148.92250230000354,149.63554216668516,149.96090370000456,149.9331363000092,149.9336600000097,149.96090370000456,149.96090370000456,149.96090370000456,151.9952094000182,300,1,[2.0334408000053372],[2.0334548999962863],098364,001,2024-11-08_14h13.56.961,Intentional binding,2024.2.2,59.892720155064744,2024-11-08 14h14.06.892450 +0530,
0.4,1000,exp,30,6,2,space,0.625128500018036,None,100,1,[2.249329600017518],[2.2493412000185344],2,6,30,7,152.01058490001014,,151.99551690000226,152.01058490001014,153.0097655999998,153.0097655999998,153.0097655999998,153.64552610000828,space,0.625128500018036,None,153.6463126000017,154.0597367666817,154.3849373999983,154.3597504000063,154.36024440001347,154.3849373999983,154.3849373999983,154.3849373999983,156.6350756000029,100,1,[2.249329600017518],[2.2493412000185344],098364,001,2024-11-08_14h13.56.961,Intentional binding,2024.2.2,59.892720155064744,2024-11-08 14h14.06.892450 +0530,
0.7,1000,exp,31,7,2,space,0.5757802999869455,None,200,1,[1.716350099974079],[1.7163656999764498],2,7,31,11,156.64992710002116,,156.6353832000168,156.64992710002116,157.64999870001338,157.64999870001338,157.64999870001338,158.2343191000109,space,0.5757802999869455,None,158.23511570002302,158.94883446666452,159.27421610002057,159.2453582000162,159.24590110001736,159.27421610002057,159.27421610002057,159.27421610002057,160.99146040002233,200,1,[1.716350099974079],[1.7163656999764498],098364,001,2024-11-08_14h13.56.961,Intentional binding,2024.2.2,59.892720155064744,2024-11-08 14h14.06.892450 +0530,
0.4,1000,exp,32,8,2,space,2.9350324000115506,None,200,1,[7.662751700001536],[7.662762400024803],2,8,32,4,161.0068384000042,,160.99183010001434,161.0068384000042,162.00577230000636,162.00577230000636,162.02250600000843,164.95565540000098,space,2.9350324000115506,None,164.95639830001164,165.3550661666707,165.68021310001495,165.65619200002402,165.65675000002375,165.68021310001495,165.68021310001495,165.68021310001495,173.3437829000177,200,1,[7.662751700001536],[7.662762400024803],098364,001,2024-11-08_14h13.56.961,Intentional binding,2024.2.2,59.892720155064744,2024-11-08 14h14.06.892450 +0530,
0.7,1000,exp,33,9,2,space,0.41282110000611283,None,300,1,[2.3827380999864545],[2.382757799990941],2,9,33,5,173.35940700001083,,173.3441466000222,173.35940700001083,174.35896920002415,174.35896920002415,174.35896920002415,174.77689990002546,space,0.41282110000611283,None,174.77766160000465,175.49172146668232,175.81652390002273,175.78914690000238,175.78978500000085,175.81652390002273,175.81652390002273,175.81652390002273,178.2001996000181,300,1,[2.3827380999864545],[2.382757799990941],098364,001,2024-11-08_14h13.56.961,Intentional binding,2024.2.2,59.892720155064744,2024-11-08 14h14.06.892450 +0530,
0.1,400,unexp,34,10,2,space,1.0984752000076696,None,200,1,[3.500135299982503],[3.5001487999979872],2,10,34,0,178.21887920002337,,178.20062580000376,178.21887920002337,179.21542320001754,179.21542320001754,179.2319083000184,180.315917800006,space,1.0984752000076696,None,180.3171240000229,180.43122496668755,180.75607070000842,180.72775140000158,180.72823600002448,180.75607070000842,180.75607070000842,180.75607070000842,184.25713340000948,200,1,[3.500135299982503],[3.5001487999979872],098364,001,2024-11-08_14h13.56.961,Intentional binding,2024.2.2,59.892720155064744,2024-11-08 14h14.06.892450 +0530,
0.7,400,unexp,35,11,2,space,0.3364671999879647,None,300,1,[1.582834400003776],[1.582845400000224],2,11,35,2,184.27236010000343,,184.2574412000249,184.27236010000343,185.27181380000548,185.27181380000548,185.27181380000548,185.6230085999996,space,0.3364671999879647,None,185.62390100001357,186.33818356666987,186.6631122000108,186.63709540001582,186.6376310000196,186.6631122000108,186.6631122000108,186.6631122000108,188.24665240000468,300,1,[1.582834400003776],[1.582845400000224],098364,001,2024-11-08_14h13.56.961,Intentional binding,2024.2.2,59.892720155064744,2024-11-08 14h14.06.892450 +0530,
0.1,1000,exp,36,0,3,space,0.964192000014009,None,200,1,[1.5036064000159968],[1.503620300005423],3,0,36,6,188.26158770002075,,188.24705770000583,188.26158770002075,189.26101290000952,189.26101290000952,189.26101290000952,190.22884620001423,space,0.964192000014009,None,190.22963350001373,190.34386136668425,190.668885400024,190.64784340001643,190.64833750002435,190.668885400024,190.668885400024,190.668885400024,192.1732799000165,200,1,[1.5036064000159968],[1.503620300005423],098364,001,2024-11-08_14h13.56.961,Intentional binding,2024.2.2,59.892720155064744,2024-11-08 14h14.06.892450 +0530,
0.4,1000,exp,37,1,3,space,0.4388197000080254,None,300,1,[1.6157550000061747],[1.6157687999948394],3,1,37,4,192.1876917000045,,192.173586000019,192.1876917000045,193.18704860002617,193.18704860002617,193.18704860002617,193.63813170001958,space,0.4388197000080254,None,193.638929800014,194.05339246668544,194.36311200002092,194.3489706000255,194.34944910000195,194.36311200002092,194.36311200002092,194.36311200002092,195.97970210001222,300,1,[1.6157550000061747],[1.6157687999948394],098364,001,2024-11-08_14h13.56.961,Intentional binding,2024.2.2,59.892720155064744,2024-11-08 14h14.06.892450 +0530,
0.4,400,unexp,38,2,3,space,0.4602372999943327,None,300,1,[1.5994771999830846],[1.5994879999780096],3,2,38,1,195.99445410000044,,195.9800826999999,195.99445410000044,196.9940695000114,196.9940695000114,196.9940695000114,197.46153860000777,space,0.4602372999943327,None,197.46228360000532,197.87681696669122,198.2019010000222,198.1783926000062,198.17890170001192,198.2019010000222,198.2019010000222,198.2019010000222,199.8022547000146,300,1,[1.5994771999830846],[1.5994879999780096],098364,001,2024-11-08_14h13.56.961,Intentional binding,2024.2.2,59.892720155064744,2024-11-08 14h14.06.892450 +0530,
0.4,1000,exp,39,3,3,space,1.3792978000128642,None,200,1,[2.6200045000005048],[2.620019099995261],3,3,39,10,199.8177265000122,,199.80264440001338,199.8177265000122,200.81731199999922,200.81731199999922,200.81731199999922,202.20104530002573,space,1.3792978000128642,None,202.2019033000106,202.60032726667512,202.924520200002,202.9039256000251,202.90446670001256,202.924520200002,202.924520200002,202.924520200002,205.54544549999991,200,1,[2.6200045000005048],[2.620019099995261],098364,001,2024-11-08_14h13.56.961,Intentional binding,2024.2.2,59.892720155064744,2024-11-08 14h14.06.892450 +0530,
0.4,1000,exp,40,4,3,space,1.1477460000023711,None,200,1,[2.282580999977654],[2.2825959000037983],3,4,40,7,205.56050479999976,,205.54584070001147,205.56050479999976,206.5598530000134,206.5598530000134,206.5598530000134,207.71057799999835,space,1.1477460000023711,None,207.71132830000715,208.12632846666773,208.45098730002064,208.4293289000052,208.42998880002415,208.45098730002064,208.45098730002064,208.45098730002064,210.73448970000027,200,1,[2.282580999977654],[2.2825959000037983],098364,001,2024-11-08_14h13.56.961,Intentional binding,2024.2.2,59.892720155064744,2024-11-08 14h14.06.892450 +0530,
0.7,1000,exp,41,5,3,space,0.36006629999610595,None,300,1,[1.533291100000497],[1.533304999989923],3,5,41,11,210.74989950002055,,210.7349033000064,210.74989950002055,211.74960020001163,211.74960020001163,211.74960020001163,212.11697470000945,space,0.36006629999610595,None,212.1177530999994,212.83243386669008,213.1570663000166,213.1333178000059,213.1339552999998,213.1570663000166,213.1570663000166,213.1570663000166,214.6912792000221,300,1,[1.533291100000497],[1.533304999989923],098364,001,2024-11-08_14h13.56.961,Intentional binding,2024.2.2,59.892720155064744,2024-11-08 14h14.06.892450 +0530,
0.7,400,unexp,42,6,3,space,0.7934773000015412,None,200,1,[1.3004718000011053],[1.3004865999973845],3,6,42,2,214.706445000018,,214.6918497000006,214.706445000018,215.7061878000095,215.7061878000095,215.7061878000095,216.50723410001956,space,0.7934773000015412,None,216.50801060002414,217.22194546668132,217.5471314000024,217.51711650000652,217.51763950000168,217.5471314000024,217.5471314000024,217.5471314000024,218.84843670000555,200,1,[1.3004718000011053],[1.3004865999973845],098364,001,2024-11-08_14h13.56.961,Intentional binding,2024.2.2,59.892720155064744,2024-11-08 14h14.06.892450 +0530,
0.1,400,unexp,43,7,3,space,0.6755761000094935,None,300,1,[1.6334259000141174],[1.633459300006507],3,7,43,0,218.864017600019,,218.84881530000712,218.864017600019,219.86313470001915,219.86313470001915,219.8796677000064,220.54803110001376,space,0.6755761000094935,None,220.54887410000083,220.6632071666866,220.9879788000253,220.9626428000047,220.9632668000122,220.9879788000253,220.9879788000253,220.9879788000253,222.62235630000941,300,1,[1.6334259000141174],[1.633459300006507],098364,001,2024-11-08_14h13.56.961,Intentional binding,2024.2.2,59.892720155064744,2024-11-08 14h14.06.892450 +0530,
0.7,1000,exp ,44,8,3,space,0.9435639000148512,None,200,1,[2.065539400005946],[2.0655533999961335],3,8,44,8,222.63713500002632,,222.622732000018,222.63713500002632,223.63640240000677,223.63640240000677,223.63640240000677,224.58791620002012,space,0.9435639000148512,None,224.5888073000242,225.30256716668762,225.6279244000034,225.60267079999903,225.60323890001746,225.6279244000034,225.6279244000034,225.6279244000034,227.69436130000395,200,1,[2.065539400005946],[2.0655533999961335],098364,001,2024-11-08_14h13.56.961,Intentional binding,2024.2.2,59.892720155064744,2024-11-08 14h14.06.892450 +0530,
0.7,1000,exp,45,9,3,space,2.4637545000005048,None,200,1,[2.0507078999944497],[2.050722299987683],3,9,45,5,227.7099308000179,,227.6947696999996,227.7099308000179,228.70967450001626,228.70967450001626,228.70967450001626,231.17589270000462,space,2.4637545000005048,None,231.17665570002282,231.89125646668643,232.21622180001577,232.19446250001783,232.1949702000129,232.21622180001577,232.21622180001577,232.21622180001577,234.26785510001355,200,1,[2.0507078999944497],[2.050722299987683],098364,001,2024-11-08_14h13.56.961,Intentional binding,2024.2.2,59.892720155064744,2024-11-08 14h14.06.892450 +0530,
0.1,1000,exp,46,10,3,space,0.7901874999806751,None,200,1,[1.6501864999881946],[1.6502022999920882],3,10,46,9,234.28334039999754,,234.26826860001893,234.28334039999754,235.28299760000664,235.28299760000664,235.28299760000664,236.0840141000226,space,0.7901874999806751,None,236.08487410002272,236.19959656667587,236.52413540001726,236.50411130001885,236.50467070000013,236.52413540001726,236.52413540001726,236.52413540001726,238.17515340002137,200,1,[1.6501864999881946],[1.6502022999920882],098364,001,2024-11-08_14h13.56.961,Intentional binding,2024.2.2,59.892720155064744,2024-11-08 14h14.06.892450 +0530,
0.1,1000,exp,47,11,3,space,0.6210236999904737,None,100,1,[2.700202200008789],[2.700219799997285],3,11,47,3,238.19032880000304,,238.1755403999996,238.19032880000304,239.1900433000119,239.1900433000119,239.1900433000119,239.82355960001587,space,0.6210236999904737,None,239.8243083000125,239.92289526667835,240.2472945000045,240.22645470002317,240.22695410001324,240.2472945000045,240.2472945000045,240.2472945000045,242.948349400016,100,1,[2.700202200008789],[2.700219799997285],098364,001,2024-11-08_14h13.56.961,Intentional binding,2024.2.2,59.892720155064744,2024-11-08 14h14.06.892450 +0530,
0.7,400,unexp,48,0,4,space,0.9129368999856524,None,300,1,[1.91657609998947],[1.916590599983465],4,0,48,2,242.96295670000836,,242.94873840000946,242.96295670000836,243.9630507999973,243.9630507999973,243.9630507999973,244.87953200002084,space,0.9129368999856524,None,244.88051040002028,245.57860526667017,245.90361560002202,245.87994230000186,245.88050680002198,245.90361560002202,245.90361560002202,245.90361560002202,247.8210439000104,300,1,[1.91657609998947],[1.916590599983465],098364,001,2024-11-08_14h13.56.961,Intentional binding,2024.2.2,59.892720155064744,2024-11-08 14h14.06.892450 +0530,
0.4,1000,exp,49,1,4,space,1.2393487000081223,None,300,1,[2.333524400019087],[2.3335389000130817],4,1,49,4,247.83613890002016,,247.8213640000031,247.83613890002016,248.8352268000017,248.8352268000017,248.8352268000017,250.08661779999966,space,1.2393487000081223,None,250.08742950001033,250.50113546668243,250.82638720000978,250.7973218000261,250.79792150002322,250.82638720000978,250.82638720000978,250.82638720000978,253.16090250000707,300,1,[2.333524400019087],[2.3335389000130817],098364,001,2024-11-08_14h13.56.961,Intentional binding,2024.2.2,59.892720155064744,2024-11-08 14h14.06.892450 +0530,
0.4,1000,exp,50,2,4,space,2.486120399989886,None,100,1,[2.16641829998116],[2.166432999976678],4,2,50,10,253.17630250001093,,253.16128180001397,253.17630250001093,254.1756082000211,254.1756082000211,254.1756082000211,256.675653400016,space,2.486120399989886,None,256.6764772000024,257.090861466688,257.4157688000123,257.38919330001227,257.38978040000075,257.4157688000123,257.4157688000123,257.4157688000123,259.583231800003,100,1,[2.16641829998116],[2.166432999976678],098364,001,2024-11-08_14h13.56.961,Intentional binding,2024.2.2,59.892720155064744,2024-11-08 14h14.06.892450 +0530,
0.4,1000,exp,51,3,4,space,0.5764295000117272,None,200,1,[1.4998952000169083],[1.4999098000116646],4,3,51,7,259.59844420000445,,259.58364190001157,259.59844420000445,260.5980366000149,260.5980366000149,260.5980366000149,261.18208910000976,space,0.5764295000117272,None,261.18287020002026,261.59732256667144,261.92288600001484,261.9013947000203,261.90193849999923,261.92288600001484,261.92288600001484,261.92288600001484,263.423620400019,200,1,[1.4998952000169083],[1.4999098000116646],098364,001,2024-11-08_14h13.56.961,Intentional binding,2024.2.2,59.892720155064744,2024-11-08 14h14.06.892450 +0530,
0.1,400,unexp,52,4,4,space,0.38305179998860694,None,100,1,[2.166151500015985],[2.1661661000107415],4,4,52,0,263.43900690000737,,263.4240263000247,263.43900690000737,264.43864400000894,264.43864400000894,264.43864400000894,264.823802400002,space,0.38305179998860694,None,264.824706400017,264.93796936667445,265.26346740001463,265.2398153000104,265.24032140002237,265.26346740001463,265.26346740001463,265.26346740001463,267.43041280002217,100,1,[2.166151500015985],[2.1661661000107415],098364,001,2024-11-08_14h13.56.961,Intentional binding,2024.2.2,59.892720155064744,2024-11-08 14h14.06.892450 +0530,
0.7,1000,exp,53,5,4,space,0.30767070001456887,None,300,1,[1.7330412000010256],[1.7330538999813143],4,5,53,11,267.44578480001655,,267.4307853000064,267.44578480001655,268.4447880000225,268.4447880000225,268.46184550001635,268.7629122000071,space,0.30767070001456887,None,268.76369240001077,269.477908266683,269.8031137000071,269.7733374000236,269.7738833000185,269.8031137000071,269.8031137000071,269.8031137000071,271.5369991000043,300,1,[1.7330412000010256],[1.7330538999813143],098364,001,2024-11-08_14h13.56.961,Intentional binding,2024.2.2,59.892720155064744,2024-11-08 14h14.06.892450 +0530,
0.7,1000,exp,54,6,4,space,5.504657799989218,None,200,1,[4.937328100000741],[4.937343500001589],4,6,54,5,271.55247550000786,,271.5373829000164,271.55247550000786,272.55207500001416,272.55207500001416,272.55207500001416,278.0675407000235,space,5.504657799989218,None,278.0683252000017,278.78279776667864,279.10747840002296,279.08535990002565,279.0859212000214,279.10747840002296,279.10747840002296,279.10747840002296,284.04568940002355,200,1,[4.937328100000741],[4.937343500001589],098364,001,2024-11-08_14h13.56.961,Intentional binding,2024.2.2,59.892720155064744,2024-11-08 14h14.06.892450 +0530,
0.1,1000,exp,55,7,4,space,0.4553172000159975,None,200 ,1,[2.1829312999907415],[2.1829483000037726],4,7,55,9,284.06092940000235,,284.04607330000727,284.06092940000235,285.06010250002146,285.06010250002146,285.06010250002146,285.527639500011,space,0.4553172000159975,None,285.52853120001964,285.64366146669295,285.96826220001094,285.94416569999885,285.94472690002294,285.96826220001094,285.96826220001094,285.96826220001094,288.1520239000092,200 ,1,[2.1829312999907415],[2.1829483000037726],098364,001,2024-11-08_14h13.56.961,Intentional binding,2024.2.2,59.892720155064744,2024-11-08 14h14.06.892450 +0530,
0.1,1000,exp,56,8,4,space,0.3259513999801129,None,300,1,[2.365019899996696],[2.365030199987814],4,8,56,3,288.1673939000175,,288.1523966000241,288.1673939000175,289.16647910000756,289.16647910000756,289.16647910000756,289.5007671000203,space,0.3259513999801129,None,289.5015045000182,289.61659686666485,289.92573430002085,289.911849600001,289.91234360000817,289.92573430002085,289.92573430002085,289.92573430002085,292.2915198999981,300,1,[2.365019899996696],[2.365030199987814],098364,001,2024-11-08_14h13.56.961,Intentional binding,2024.2.2,59.892720155064744,2024-11-08 14h14.06.892450 +0530,
0.4,400,unexp,57,9,4,space,0.2958167999750003,None,300,1,[1.7991990000009537],[1.7992095999943558],4,9,57,1,292.3073878000141,,292.29193680000026,292.3073878000141,293.306596600014,293.306596600014,293.306596600014,293.60844240000006,space,0.2958167999750003,None,293.6093093000236,294.0231522666911,294.34837620001053,294.32361060002586,294.3242100000207,294.34837620001053,294.34837620001053,294.34837620001053,296.14844200000516,300,1,[1.7991990000009537],[1.7992095999943558],098364,001,2024-11-08_14h13.56.961,Intentional binding,2024.2.2,59.892720155064744,2024-11-08 14h14.06.892450 +0530,
0.7,1000,exp ,58,10,4,space,0.3040315000107512,None,300,1,[2.1334047999989707],[2.1334209000051487],4,10,58,8,296.16410429999814,,296.148840800015,296.16410429999814,297.1634229000192,297.1634229000192,297.1634229000192,297.48094050001237,space,0.3040315000107512,None,297.48183240002254,298.19624056667476,298.5213596000103,298.4988823000167,298.4994515000144,298.5213596000103,298.5213596000103,298.5213596000103,300.6556030000211,300,1,[2.1334047999989707],[2.1334209000051487],098364,001,2024-11-08_14h13.56.961,Intentional binding,2024.2.2,59.892720155064744,2024-11-08 14h14.06.892450 +0530,
0.1,1000,exp,59,11,4,space,0.43934470001840964,None,200,1,[1.8501818999939132],[1.8501936999964528],4,11,59,6,300.67029070001445,,300.6560045000224,300.67029070001445,301.6696843000245,301.6696843000245,301.6696843000245,302.1210166000237,space,0.43934470001840964,None,302.12183260000893,302.2370715666659,302.5577564999985,302.5425366999989,302.54311250001774,302.5577564999985,302.5577564999985,302.5577564999985,304.40875590001815,200,1,[1.8501818999939132],[1.8501936999964528],098364,001,2024-11-08_14h13.56.961,Intentional binding,2024.2.2,59.892720155064744,2024-11-08 14h14.06.892450 +0530,
0.1,400,unexp,60,0,5,space,0.7904713000170887,None,300,1,[1.732943700015312],[1.7329616000060923],5,0,60,0,304.42413300002227,,304.40908630000195,304.42413300002227,305.4235200000112,305.4235200000112,305.4235200000112,306.2242495000246,space,0.7904713000170887,None,306.22501180000836,306.3397592666772,306.6651434000232,306.6370939000044,306.637649900018,306.6651434000232,306.6651434000232,306.6651434000232,308.3989772000059,300,1,[1.732943700015312],[1.7329616000060923],098364,001,2024-11-08_14h13.56.961,Intentional binding,2024.2.2,59.892720155064744,2024-11-08 14h14.06.892450 +0530,
0.1,1000,exp,61,1,5,space,0.27257529998314567,None,200,1,[1.6828475999936927],[1.6828627999930177],5,1,61,6,308.414549100009,,308.39937660002033,308.414549100009,309.4133261000097,309.4133261000097,309.4301392000052,309.6976847000187,space,0.27257529998314567,None,309.698473299999,309.8132442666722,310.13881040000706,310.1147181999986,310.1152616000036,310.13881040000706,310.13881040000706,310.13881040000706,311.82248020000407,200,1,[1.6828475999936927],[1.6828627999930177],098364,001,2024-11-08_14h13.56.961,Intentional binding,2024.2.2,59.892720155064744,2024-11-08 14h14.06.892450 +0530,
0.4,1000,exp,62,2,5,space,0.19801900000311434,None,300,1,[2.233075000025565],[2.233092700014822],5,2,62,10,311.83776860000216,,311.8228979000123,311.83776860000216,312.83687320002355,312.83687320002355,312.85341589999734,313.0380723999988,space,0.19801900000311434,None,313.0390627000015,313.4533065666658,313.7783862000215,313.7518994999991,313.75244969999767,313.7783862000215,313.7783862000215,313.7783862000215,316.0124885000114,300,1,[2.233075000025565],[2.233092700014822],098364,001,2024-11-08_14h13.56.961,Intentional binding,2024.2.2,59.892720155064744,2024-11-08 14h14.06.892450 +0530,
0.1,1000,exp,63,3,5,space,0.3456564999942202,None,300,1,[2.349155999982031],[2.3491707000066526],5,3,63,9,316.02779480000027,,316.0129407000204,316.02779480000027,317.0270203000109,317.0270203000109,317.0270203000109,317.3782715999987,space,0.3456564999942202,None,317.3790729000175,317.4935524666837,317.8192077999993,317.79450440002256,317.79500020001433,317.8192077999993,317.8192077999993,317.8192077999993,320.1691494000261,300,1,[2.349155999982031],[2.3491707000066526],098364,001,2024-11-08_14h13.56.961,Intentional binding,2024.2.2,59.892720155064744,2024-11-08 14h14.06.892450 +0530,
0.7,400,unexp,64,4,5,space,0.3648291999998037,None,200,1,[2.515073799993843],[2.51508820001618],5,4,64,2,320.1843257000146,,320.16952429999947,320.1843257000146,321.1836563000106,321.1836563000106,321.1836563000106,321.55141220000223,space,0.3648291999998037,None,321.5521680000238,322.26650776667907,322.5924078000244,322.562708500016,322.56358909999835,322.5924078000244,322.5924078000244,322.5924078000244,325.10839510001824,200,1,[2.515073799993843],[2.51508820001618],098364,001,2024-11-08_14h13.56.961,Intentional binding,2024.2.2,59.892720155064744,2024-11-08 14h14.06.892450 +0530,
0.4,1000,exp,65,5,5,space,0.9844111999846064,None,100,1,[1.4344700999790803],[1.4344848000037018],5,5,65,4,325.1238367000187,,325.1088302000135,325.1238367000187,326.1232523000217,326.1232523000217,326.1232523000217,327.12390520001645,space,0.9844111999846064,None,327.1246554000245,327.5396856666814,327.86403450000216,327.8426333000243,327.8431782000116,327.86403450000216,327.86403450000216,327.86403450000216,329.29928050001035,100,1,[1.4344700999790803],[1.4344848000037018],098364,001,2024-11-08_14h13.56.961,Intentional binding,2024.2.2,59.892720155064744,2024-11-08 14h14.06.892450 +0530,
0.1,1000,exp,66,6,5,space,0.350664700003108,None,200,1,[1.9998184999858495],[1.9998336999851745],5,6,66,3,329.3149305000261,,329.29968830000143,329.3149305000261,330.3139072000049,330.3139072000049,330.3304890000145,330.6663707999978,space,0.350664700003108,None,330.66719760000706,330.78015436669034,331.1054005000042,331.08089740001014,331.081454500003,331.1054005000042,331.1054005000042,331.1054005000042,333.1063839000126,200,1,[1.9998184999858495],[1.9998336999851745],098364,001,2024-11-08_14h13.56.961,Intentional binding,2024.2.2,59.892720155064744,2024-11-08 14h14.06.892450 +0530,
0.7,1000,exp,67,7,5,space,0.29941589999361895,None,300,1,[1.4499500000092667],[1.4499629000201821],5,7,67,5,333.1211499000201,,333.1067684000009,333.1211499000201,334.1210164000222,334.1210164000222,334.1210164000222,334.42215020000003,space,0.29941589999361895,None,334.4229288000206,335.136725966677,335.46179510001093,335.43720230000326,335.437683199998,335.46179510001093,335.46179510001093,335.46179510001093,336.91260570002487,300,1,[1.4499500000092667],[1.4499629000201821],098364,001,2024-11-08_14h13.56.961,Intentional binding,2024.2.2,59.892720155064744,2024-11-08 14h14.06.892450 +0530,
0.4,400,unexp,68,8,5,space,0.8321872999949846,None,300,1,[1.584408299997449],[1.5844227000197861],5,8,68,1,336.92816190002486,,336.91298630001256,336.92816190002486,337.9270431000041,337.9270431000041,337.9270431000041,338.761618700024,space,0.8321872999949846,None,338.76239490002627,339.17670416666465,339.5016264000151,339.4799102000252,339.4803839000233,339.5016264000151,339.5016264000151,339.5016264000151,341.0868430999981,300,1,[1.584408299997449],[1.5844227000197861],098364,001,2024-11-08_14h13.56.961,Intentional binding,2024.2.2,59.892720155064744,2024-11-08 14h14.06.892450 +0530,
0.7,1000,exp,69,9,5,space,0.5050381000037305,None,200,1,[2.000663299986627],[2.0006783999851905],5,9,69,11,341.10227780000423,,341.087216600019,341.10227780000423,342.1015369000088,342.1015369000088,342.1015369000088,342.6191649000102,space,0.5050381000037305,None,342.6200066000165,343.33469306669235,343.6589098999975,343.6292123000021,343.62977030000184,343.6589098999975,343.6589098999975,343.6589098999975,345.6604398000054,200,1,[2.000663299986627],[2.0006783999851905],098364,001,2024-11-08_14h13.56.961,Intentional binding,2024.2.2,59.892720155064744,2024-11-08 14h14.06.892450 +0530,
0.4,1000,exp,70,10,5,space,0.39562799999839626,None,300,1,[1.6832251000159886],[1.683239500009222],5,10,70,7,345.67514230002416,,345.66078350000316,345.67514230002416,346.67489760002354,346.67489760002354,346.67489760002354,347.0759395000059,space,0.39562799999839626,None,347.0767586000147,347.4915804666855,347.81643430000986,347.78926550000324,347.7897368000122,347.81643430000986,347.81643430000986,347.81643430000986,349.5005807999987,300,1,[1.6832251000159886],[1.683239500009222],098364,001,2024-11-08_14h13.56.961,Intentional binding,2024.2.2,59.892720155064744,2024-11-08 14h14.06.892450 +0530,
0.7,1000,exp ,71,11,5,space,0.47344080000766553,None,200,1,[1.4996231000113767],[1.4996379000076558],5,11,71,8,349.51575970000704,,349.5010065000097,349.51575970000704,350.51498070001253,350.51498070001253,350.51498070001253,351.00001700001303,space,0.47344080000766553,None,351.00083560001804,351.7147577666658,352.03980030000093,352.01342930001556,352.01399410000886,352.03980030000093,352.03980030000093,352.03980030000093,353.54027740002493,200,1,[1.4996231000113767],[1.4996379000076558],098364,001,2024-11-08_14h13.56.961,Intentional binding,2024.2.2,59.892720155064744,2024-11-08 14h14.06.892450 +0530,
0.7,400,unexp,72,0,6,space,0.5582283000112511,None,300,1,[1.5832501000259072],[1.5832610000215936],6,0,72,2,353.55533570001717,,353.5405792000238,353.55533570001717,354.55560449999757,354.55560449999757,354.55560449999757,355.1227051000169,space,0.5582283000112511,None,355.12350940000033,355.8377846666883,356.1627692000184,356.1413903000066,356.14194000000134,356.1627692000184,356.1627692000184,356.1627692000184,357.74685200001113,300,1,[1.5832501000259072],[1.5832610000215936],098364,001,2024-11-08_14h13.56.961,Intentional binding,2024.2.2,59.892720155064744,2024-11-08 14h14.06.892450 +0530,
0.1,400,unexp,73,1,6,space,1.057063999993261,None,200,1,[5.201217199995881],[5.201232599996729],6,1,73,0,357.7620292000065,,357.7472588000237,357.7620292000065,358.76142910000635,358.76142910000635,358.76142910000635,359.8287270000146,space,1.057063999993261,None,359.82962570001837,359.94435006668596,360.26937250001356,360.24782630000846,360.24834760001977,360.26937250001356,360.26937250001356,360.26937250001356,365.47154850000516,200,1,[5.201217199995881],[5.201232599996729],098364,001,2024-11-08_14h13.56.961,Intentional binding,2024.2.2,59.892720155064744,2024-11-08 14h14.06.892450 +0530,
0.4,1000,exp,74,2,6,space,14.581737100001192,None,200,1,[2.04965730002732],[2.0496726000274066],6,2,74,10,365.4866037000029,,365.47191180000664,365.4866037000029,366.48624700002256,366.48624700002256,366.48624700002256,381.0810846000095,space,14.581737100001192,None,381.0820309999981,381.49635846668775,381.8214538000175,381.79454090000945,381.7950952000101,381.8214538000175,381.8214538000175,381.8214538000175,383.87204290000955,200,1,[2.04965730002732],[2.0496726000274066],098364,001,2024-11-08_14h13.56.961,Intentional binding,2024.2.2,59.892720155064744,2024-11-08 14h14.06.892450 +0530,
0.7,1000,exp,75,3,6,space,1.322187000012491,None,300,1,[1.5969465999805834],[1.5969776999845635],6,3,75,11,383.8869645000086,,383.8724436000048,383.8869645000086,384.88761170001817,384.88761170001817,384.88761170001817,386.22050039999885,space,1.322187000012491,None,386.2214351000148,386.9353995666645,387.26022060000105,387.2344712000049,387.2351108000148,387.26022060000105,387.26022060000105,387.26022060000105,388.8581657000177,300,1,[1.5969465999805834],[1.5969776999845635],098364,001,2024-11-08_14h13.56.961,Intentional binding,2024.2.2,59.892720155064744,2024-11-08 14h14.06.892450 +0530,
0.4,1000,exp,76,4,6,space,0.4915490999992471,None,200,1,[2.24990299998899],[2.2499257999879774],6,4,76,7,388.87278800000786,,388.85856920000515,388.87278800000786,389.87206180000794,389.87206180000794,389.87206180000794,390.3732430000091,space,0.4915490999992471,None,390.3741665999987,390.78845426667635,391.11337890001596,391.0852397000126,391.0858930000104,391.11337890001596,391.11337890001596,391.11337890001596,393.36422680001124,200,1,[2.24990299998899],[2.2499257999879774],098364,001,2024-11-08_14h13.56.961,Intentional binding,2024.2.2,59.892720155064744,2024-11-08 14h14.06.892450 +0530,
0.4,1000,exp,77,5,6,space,0.6856334000185598,None,100,1,[1.449633400014136],[1.449655900010839],6,5,77,4,393.37933670001803,,393.3646699000092,393.37933670001803,394.37853120002546,394.37853120002546,394.37853120002546,395.07943710000836,space,0.6856334000185598,None,395.0801886000263,395.49472586668367,395.8202592000016,395.79517610001494,395.7956945000042,395.8202592000016,395.8202592000016,395.8202592000016,397.2707697000005,100,1,[1.449633400014136],[1.449655900010839],098364,001,2024-11-08_14h13.56.961,Intentional binding,2024.2.2,59.892720155064744,2024-11-08 14h14.06.892450 +0530,
0.1,1000,exp,78,6,6,space,0.8737854000064544,None,300,1,[2.5988696000131313],[2.5988809000118636],6,6,78,9,397.28585750001366,,397.27114320002147,397.28585750001366,398.28541410001344,398.28541410001344,398.28541410001344,399.1694076000131,space,0.8737854000064544,None,399.1703301000234,399.2687634666838,399.5940002000134,399.5654484000115,399.5660880000214,399.5940002000134,399.5940002000134,399.5940002000134,402.1937040000048,300,1,[2.5988696000131313],[2.5988809000118636],098364,001,2024-11-08_14h13.56.961,Intentional binding,2024.2.2,59.892720155064744,2024-11-08 14h14.06.892450 +0530,
0.1,1000,exp,79,7,6,space,0.5162513999966905,None,200,1,[3.515667100000428],[3.515684299985878],6,7,79,3,402.20880930000567,,402.1940251000051,402.20880930000567,403.2081805000198,403.2081805000198,403.2081805000198,403.72676240000874,space,0.5162513999966905,None,403.72752770001534,403.8415755666831,404.16649800000596,404.14150300002075,404.14206030001515,404.16649800000596,404.16649800000596,404.16649800000596,407.68302210001275,200,1,[3.515667100000428],[3.515684299985878],098364,001,2024-11-08_14h13.56.961,Intentional binding,2024.2.2,59.892720155064744,2024-11-08 14h14.06.892450 +0530,
0.1,1000,exp,80,8,6,space,0.6407409000094049,None,100 ,1,[4.115486700000474],[4.115501099993708],6,8,80,6,407.6980459000042,,407.6834022999974,407.6980459000042,408.6973149999976,408.6973149999976,408.6973149999976,409.3488337000017,space,0.6407409000094049,None,409.3496970999986,409.46408566667037,409.7885944000154,409.7629480000178,409.76345290002064,409.7885944000154,409.7885944000154,409.7885944000154,413.9050009000057,100 ,1,[4.115486700000474],[4.115501099993708],098364,001,2024-11-08_14h13.56.961,Intentional binding,2024.2.2,59.892720155064744,2024-11-08 14h14.06.892450 +0530,
0.7,1000,exp ,81,9,6,space,0.39145120000466704,None,200 ,1,[2.033717499987688],[2.033727899979567],6,9,81,8,413.9203513000102,,413.9054373000108,413.9203513000102,414.9204189000011,414.9204189000011,414.9204189000011,415.32187590000103,space,0.39145120000466704,None,415.32268260000274,416.03696526668887,416.3610360000166,416.3335406999977,416.33409450002364,416.3610360000166,416.3610360000166,416.3610360000166,418.39552650001133,200 ,1,[2.033717499987688],[2.033727899979567],098364,001,2024-11-08_14h13.56.961,Intentional binding,2024.2.2,59.892720155064744,2024-11-08 14h14.06.892450 +0530,
0.4,400,unexp,82,10,6,space,0.49072349999914877,None,300,1,[1.7828198999923188],[1.7828336999809835],6,10,82,1,418.4110113000206,,418.39589100002195,418.4110113000206,419.3940469000081,419.3940469000081,419.410712300014,419.8954937000235,space,0.49072349999914877,None,419.8962689000182,420.31008616666463,420.6355400000175,420.6108538999979,420.61144030001014,420.6355400000175,420.6355400000175,420.6355400000175,422.419274600019,300,1,[1.7828198999923188],[1.7828336999809835],098364,001,2024-11-08_14h13.56.961,Intentional binding,2024.2.2,59.892720155064744,2024-11-08 14h14.06.892450 +0530,
0.7,1000,exp,83,11,6,space,0.48915939999278635,None,200,1,[2.549775400024373],[2.549790800025221],6,11,83,5,422.4344755000202,,422.4196653000254,422.4344755000202,423.4339021000196,423.4339021000196,423.4339021000196,423.9346871000016,space,0.48915939999278635,None,423.9355577000242,424.65009596667755,424.9746664999984,424.9522997000022,424.95293190001394,424.9746664999984,424.9746664999984,424.9746664999984,427.52536310002324,200,1,[2.549775400024373],[2.549790800025221],098364,001,2024-11-08_14h13.56.961,Intentional binding,2024.2.2,59.892720155064744,2024-11-08 14h14.06.892450 +0530,
0.4,1000,exp,84,0,7,space,1.1444552000029944,None,100,1,[2.684123700018972],[2.684137300006114],7,0,84,4,427.5407062000013,,427.525741999998,427.5407062000013,428.53972110000905,428.53972110000905,428.53972110000905,429.6903952000139,space,1.1444552000029944,None,429.6911762000236,430.1059030666695,430.4307383999985,430.4026969000115,430.4033296999987,430.4307383999985,430.4307383999985,430.4307383999985,433.11576200000127,100,1,[2.684123700018972],[2.684137300006114],098364,001,2024-11-08_14h13.56.961,Intentional binding,2024.2.2,59.892720155064744,2024-11-08 14h14.06.892450 +0530,
0.7,1000,exp,85,1,7,space,0.5049349000037182,None,200 ,1,[2.467430399992736],[2.467444699985208],7,1,85,5,433.13074670001515,,433.11615300000994,433.13074670001515,434.12994179999805,434.12994179999805,434.12994179999805,434.64775740000186,space,0.5049349000037182,None,434.6486135000014,435.3628208666671,435.68763729999773,435.6613986000011,435.66195220002555,435.68763729999773,435.68763729999773,435.68763729999773,438.15587710001273,200 ,1,[2.467430399992736],[2.467444699985208],098364,001,2024-11-08_14h13.56.961,Intentional binding,2024.2.2,59.892720155064744,2024-11-08 14h14.06.892450 +0530,
0.7,400,unexp,86,2,7,space,0.489237800007686,None,300,1,[1.8502939000027254],[1.8503084999974817],7,2,86,2,438.17081560002407,,438.1562574999989,438.17081560002407,439.1701447000087,439.1701447000087,439.1701447000087,439.6711523999984,space,0.489237800007686,None,439.67203480002354,440.3864073666666,440.7114669000148,440.68579250000766,440.6863502000051,440.7114669000148,440.7114669000148,440.7114669000148,442.56262670000433,300,1,[1.8502939000027254],[1.8503084999974817],098364,001,2024-11-08_14h13.56.961,Intentional binding,2024.2.2,59.892720155064744,2024-11-08 14h14.06.892450 +0530,
0.4,400,unexp,87,3,7,space,0.4744098999944981,None,100,1,[1.849592999991728],[1.8496073999849614],7,3,87,1,442.5771444000129,,442.5630131000071,442.5771444000129,443.5765142000164,443.5765142000164,443.5765142000164,444.0611541000253,space,0.4744098999944981,None,444.0619230000011,444.476122266675,444.801684200007,444.77653050000663,444.77703500000644,444.801684200007,444.801684200007,444.801684200007,446.65219849999994,100,1,[1.849592999991728],[1.8496073999849614],098364,001,2024-11-08_14h13.56.961,Intentional binding,2024.2.2,59.892720155064744,2024-11-08 14h14.06.892450 +0530,
0.4,1000,exp,88,4,7,space,0.4904767000116408,None,200,1,[1.616271200007759],[1.6162860000040382],7,4,88,7,446.6671923000249,,446.6526027000218,446.6671923000249,447.6668156000087,447.6668156000087,447.6668156000087,448.16740950001986,space,0.4904767000116408,None,448.1681543000159,448.5828283666672,448.9082989000017,448.88349520001793,448.88405140000395,448.9082989000017,448.9082989000017,448.9082989000017,450.525477600022,200,1,[1.616271200007759],[1.6162860000040382],098364,001,2024-11-08_14h13.56.961,Intentional binding,2024.2.2,59.892720155064744,2024-11-08 14h14.06.892450 +0530,
0.4,1000,exp,89,5,7,space,0.8577766999951564,None,200,1,[1.3668907000101171],[1.366906299983384],7,5,89,10,450.5408774000243,,450.5257925000042,450.5408774000243,451.54043470000033,451.54043470000033,451.54043470000033,452.4076890000142,space,0.8577766999951564,None,452.40848550002556,452.82287156666666,453.14832249999745,453.1227993000066,453.1233240000147,453.14832249999745,453.14832249999745,453.14832249999745,454.5160791000235,200,1,[1.3668907000101171],[1.366906299983384],098364,001,2024-11-08_14h13.56.961,Intentional binding,2024.2.2,59.892720155064744,2024-11-08 14h14.06.892450 +0530,
0.1,1000,exp,90,6,7,space,0.5804660999856424,None,300,1,[1.716285299975425],[1.716300299973227],7,6,90,6,454.53143250002177,,454.51645950000966,454.53143250002177,455.53040509999846,455.53040509999846,455.5471263000218,456.11436340000364,space,0.5804660999856424,None,456.11524980000104,456.23016266667787,456.55547930000466,456.5255575000192,456.5260320000234,456.55547930000466,456.55547930000466,456.55547930000466,458.27259520001826,300,1,[1.716285299975425],[1.716300299973227],098364,001,2024-11-08_14h13.56.961,Intentional binding,2024.2.2,59.892720155064744,2024-11-08 14h14.06.892450 +0530,
0.7,1000,exp ,91,7,7,space,0.6047787999850698,None,200,1,[1.8495510999928229],[1.8495668999967165],7,7,91,8,458.2879603000183,,458.2729709999985,458.2879603000183,459.2870824999991,459.2870824999991,459.2870824999991,459.9046089000185,space,0.6047787999850698,None,459.90550650001387,460.6198652666683,460.9450985000003,460.92002160000266,460.92094920002273,460.9450985000003,460.9450985000003,460.9450985000003,462.7955513000197,200,1,[1.8495510999928229],[1.8495668999967165],098364,001,2024-11-08_14h13.56.961,Intentional binding,2024.2.2,59.892720155064744,2024-11-08 14h14.06.892450 +0530,
0.1,1000,exp,92,8,7,space,0.8400985000189394,None,100,1,[1.636898900003871],[1.636915000010049],7,8,92,9,462.8107782000152,,462.7959540000011,462.8107782000152,463.810333100002,463.810333100002,463.810333100002,464.6623365000123,space,0.8400985000189394,None,464.66313690002426,464.77637746668574,465.1014706999995,465.08007770002587,465.0806245999993,465.1014706999995,465.1014706999995,465.1014706999995,466.7391728000075,100,1,[1.636898900003871],[1.636915000010049],098364,001,2024-11-08_14h13.56.961,Intentional binding,2024.2.2,59.892720155064744,2024-11-08 14h14.06.892450 +0530,
0.1,400,unexp,93,9,7,space,0.45757850000518374,None,200,1,[2.005600399977993],[2.0056162999826483],7,9,93,0,466.7545067000028,,466.739507899998,466.7545067000028,467.7535912000167,467.7535912000167,467.7535912000167,468.22207550000167,space,0.45757850000518374,None,468.22287789999973,468.3367863666829,468.6618062000198,468.63201729999855,468.63254099999904,468.6618062000198,468.6618062000198,468.6618062000198,470.6683175000071,200,1,[2.005600399977993],[2.0056162999826483],098364,001,2024-11-08_14h13.56.961,Intentional binding,2024.2.2,59.892720155064744,2024-11-08 14h14.06.892450 +0530,
0.7,1000,exp,94,10,7,space,0.35189459999674,None,200,1,[2.165510599996196],[2.1655254999932367],7,10,94,11,470.6829886000196,,470.6687781000219,470.6829886000196,471.68306890001986,471.68306890001986,471.68306890001986,472.05013200000394,space,0.35189459999674,None,472.05094980000285,472.7653923666842,473.0909395000199,473.0693646,473.0699569999997,473.0909395000199,473.0909395000199,473.0909395000199,475.2575446999981,200,1,[2.165510599996196],[2.1655254999932367],098364,001,2024-11-08_14h13.56.961,Intentional binding,2024.2.2,59.892720155064744,2024-11-08 14h14.06.892450 +0530,
0.1,1000,exp,95,11,7,space,0.4801964000216685,None,100,1,[2.049364999984391],[2.049375600006897],7,11,95,3,475.27267770000617,,475.257970000006,475.27267770000617,476.2721184999973,476.2721184999973,476.2721184999973,476.7564943000034,space,0.4801964000216685,None,476.75743460000376,476.8721138666772,477.1968837000022,477.17590580001706,477.1763802000205,477.1968837000022,477.1968837000022,477.1968837000022,479.2470656000078,100,1,[2.049364999984391],[2.049375600006897],098364,001,2024-11-08_14h13.56.961,Intentional binding,2024.2.2,59.892720155064744,2024-11-08 14h14.06.892450 +0530,
0.7,400,unexp,96,0,8,space,0.42385719998856075,None,200,1,[1.733173299988266],[1.733189599995967],8,0,96,2,479.2627399000048,,479.2473706000019,479.2627399000048,480.2620716000092,480.2620716000092,480.2620716000092,480.69644220001646,space,0.42385719998856075,None,480.69727330000023,481.41179096667133,481.7371486000193,481.70986420000554,481.710433500004,481.7371486000193,481.7371486000193,481.7371486000193,483.4712824000162,200,1,[1.733173299988266],[1.733189599995967],098364,001,2024-11-08_14h13.56.961,Intentional binding,2024.2.2,59.892720155064744,2024-11-08 14h14.06.892450 +0530,
0.1,1000,exp,97,1,8,space,0.8092513000010513,None,300,1,[2.388572199997725],[2.38858669999172],8,1,97,6,483.48586130002514,,483.47165900000255,483.48586130002514,484.48573030001717,484.48573030001717,484.48573030001717,485.30298620002577,space,0.8092513000010513,None,485.30396109999856,485.40220456666816,485.72649280002224,485.6986695000087,485.6991882000002,485.72649280002224,485.72649280002224,485.72649280002224,488.11591620001127,300,1,[2.388572199997725],[2.38858669999172],098364,001,2024-11-08_14h13.56.961,Intentional binding,2024.2.2,59.892720155064744,2024-11-08 14h14.06.892450 +0530,
0.1,1000,exp,98,2,8,space,1.3788359000172932,None,200,1,[3.3515900000056718],[3.3516047000011895],8,2,98,9,488.1312956000038,,488.11629010000615,488.1312956000038,489.13091850001365,489.13091850001365,489.14741460001096,490.51432300001034,space,1.3788359000172932,None,490.5150789000036,490.61347766669155,490.9378725000133,490.9150602000009,490.91562270000577,490.9378725000133,490.9378725000133,490.9378725000133,494.2903553000069,200,1,[3.3515900000056718],[3.3516047000011895],098364,001,2024-11-08_14h13.56.961,Intentional binding,2024.2.2,59.892720155064744,2024-11-08 14h14.06.892450 +0530,
0.4,1000,exp,99,3,8,,,,,,,,8,3,99,7,494.3053098000237,,494.29071380000096,494.3053098000237,,,,,,,,,,,,,,,,,,,,,,,,,,,,
