pos,corr_resp,thisN,thisTrialN,thisRepN,key_resp.keys,key_resp.corr,key_resp.rt,key_resp.duration,key_resp_2.keys,key_resp_2.corr,key_resp_2.rt,key_resp_2.duration,trials.thisRepN,trials.thisTrialN,trials.thisN,trials.thisIndex,trials_2.thisRepN,trials_2.thisTrialN,trials_2.thisN,trials_2.thisIndex,thisRow.t,notes,trial.started,Fixation.started,line1.started,line2.started,line3.started,line4.started,Fixation.stopped,probe.started,key_resp.started,trial.stopped,trials.key_resp.keys,trials.key_resp.corr,trials.key_resp.rt,trials.key_resp.duration,random_2.started,Fixation_2.started,line1_2.started,line2_2.started,line3_2.started,line4_2.started,Fixation_2.stopped,probe_2.started,key_resp_2.started,random_2.stopped,trials_2.key_resp_2.keys,trials_2.key_resp_2.corr,trials_2.key_resp_2.rt,trials_2.key_resp_2.duration,participant,session,date,expName,psychopyVersion,frameRate,expStart,
-50,x,0,0,0,x,1,0.4890988999977708,None,,,,,0,0,0,0,,,,,0.03567290000501089,,0.017345900007057935,0.03567290000501089,1.0018579000025056,1.0018579000025056,1.0018579000025056,1.0018579000025056,1.0350892999995267,2.001643800002057,2.001643800002057,2.5066147000034107,x,1,0.4890988999977708,None,,,,,,,,,,,,,,,ishita,001,2024-10-16_15h20.56.519,Motor Sequence,2024.2.2,60.08900383515513,2024-10-16 15h21.06.325936 +0530,
150,v,1,1,0,v,1,0.24459079999360256,None,,,,,0,1,1,1,,,,,2.517966300001717,,2.5069212000089465,2.517966300001717,3.5175441000028513,3.5175441000028513,3.5175441000028513,3.5175441000028513,3.5175441000028513,4.5174798000080045,4.5174798000080045,4.767465800003265,v,1,0.24459079999360256,None,,,,,,,,,,,,,,,ishita,001,2024-10-16_15h20.56.519,Motor Sequence,2024.2.2,60.08900383515513,2024-10-16 15h21.06.325936 +0530,
50,c,2,2,0,c,1,0.19842030000290833,None,,,,,0,2,2,2,,,,,4.783683000001474,,4.767757399997208,4.783683000001474,5.783640699999523,5.783640699999523,5.783640699999523,5.783640699999523,5.783640699999523,6.783116200007498,6.783116200007498,6.984008500003256,c,1,0.19842030000290833,None,,,,,,,,,,,,,,,ishita,001,2024-10-16_15h20.56.519,Motor Sequence,2024.2.2,60.08900383515513,2024-10-16 15h21.06.325936 +0530,
-150,z,3,3,0,z,1,0.08133570000063628,None,,,,,0,3,3,3,,,,,6.998977600000217,,6.984359399997629,6.998977600000217,7.998707999999169,7.998707999999169,7.998707999999169,7.998707999999169,7.998707999999169,8.998317699995823,8.998317699995823,9.082253300002776,z,1,0.08133570000063628,None,,,,,,,,,,,,,,,ishita,001,2024-10-16_15h20.56.519,Motor Sequence,2024.2.2,60.08900383515513,2024-10-16 15h21.06.325936 +0530,
-50,x,4,0,1,x,1,0.3281560999894282,None,,,,,1,0,4,0,,,,,9.098186899995198,,9.082636999999522,9.098186899995198,10.09780679999676,10.09780679999676,10.09780679999676,10.09780679999676,10.09780679999676,11.080736999996589,11.080736999996589,11.41494309999689,x,1,0.3281560999894282,None,,,,,,,,,,,,,,,ishita,001,2024-10-16_15h20.56.519,Motor Sequence,2024.2.2,60.08900383515513,2024-10-16 15h21.06.325936 +0530,
150,v,5,1,1,v,1,0.29508529999293387,None,,,,,1,1,5,1,,,,,11.430424799997127,,11.415251600003103,11.430424799997127,12.430200200004037,12.430200200004037,12.430200200004037,12.430200200004037,12.430200200004037,13.430173300002934,13.430173300002934,13.730420799998683,v,1,0.29508529999293387,None,,,,,,,,,,,,,,,ishita,001,2024-10-16_15h20.56.519,Motor Sequence,2024.2.2,60.08900383515513,2024-10-16 15h21.06.325936 +0530,
50,c,6,2,1,c,1,0.228889000005438,None,,,,,1,2,6,2,,,,,13.746169899997767,,13.730719400002272,13.746169899997767,14.746104300007573,14.746104300007573,14.746104300007573,14.746104300007573,14.746104300007573,15.74579650000669,15.74579650000669,15.979933199996594,c,1,0.228889000005438,None,,,,,,,,,,,,,,,ishita,001,2024-10-16_15h20.56.519,Motor Sequence,2024.2.2,60.08900383515513,2024-10-16 15h21.06.325936 +0530,
-150,z,7,3,1,z,1,0.24851760000456125,None,,,,,1,3,7,3,,,,,15.995485799998278,,15.980257300005178,15.995485799998278,16.978222200006712,16.978222200006712,16.978222200006712,16.978222200006712,16.995171900009154,17.994966600002954,17.994966600002954,18.2460107000079,z,1,0.24851760000456125,None,,,,,,,,,,,,,,,ishita,001,2024-10-16_15h20.56.519,Motor Sequence,2024.2.2,60.08900383515513,2024-10-16 15h21.06.325936 +0530,
-50,x,8,0,2,x,1,0.1882694999949308,None,,,,,2,0,8,0,,,,,18.26104110000597,,18.24636210000608,18.26104110000597,19.26069360000838,19.26069360000838,19.26069360000838,19.26069360000838,19.26069360000838,20.260343900008593,20.260343900008593,20.461572400003206,x,1,0.1882694999949308,None,,,,,,,,,,,,,,,ishita,001,2024-10-16_15h20.56.519,Motor Sequence,2024.2.2,60.08900383515513,2024-10-16 15h21.06.325936 +0530,
150,v,9,1,2,v,1,0.2828948000096716,None,,,,,2,1,9,1,,,,,20.47668839999824,,20.461925399999018,20.47668839999824,21.476456899996265,21.476456899996265,21.476456899996265,21.476456899996265,21.476456899996265,22.476547199999914,22.476547199999914,22.761014700008673,v,1,0.2828948000096716,None,,,,,,,,,,,,,,,ishita,001,2024-10-16_15h20.56.519,Motor Sequence,2024.2.2,60.08900383515513,2024-10-16 15h21.06.325936 +0530,
50,c,10,2,2,c,1,0.3768707999988692,None,,,,,2,2,10,2,,,,,22.77596640000411,,22.761328200009302,22.77596640000411,23.77527209999971,23.77527209999971,23.77527209999971,23.77527209999971,23.77527209999971,24.774811199997202,24.774811199997202,25.159383499994874,c,1,0.3768707999988692,None,,,,,,,,,,,,,,,ishita,001,2024-10-16_15h20.56.519,Motor Sequence,2024.2.2,60.08900383515513,2024-10-16 15h21.06.325936 +0530,
-150,z,11,3,2,z,1,0.2841179999959422,None,,,,,2,3,11,3,,,,,25.17463969999517,,25.159822200002964,25.17463969999517,26.17416399999638,26.17416399999638,26.17416399999638,26.17416399999638,26.17416399999638,27.174451900005806,27.174451900005806,27.474755700008245,z,1,0.2841179999959422,None,,,,,,,,,,,,,,,ishita,001,2024-10-16_15h20.56.519,Motor Sequence,2024.2.2,60.08900383515513,2024-10-16 15h21.06.325936 +0530,
-50,x,12,0,3,x,1,0.3750212000013562,None,,,,,3,0,12,0,,,,,27.49058050000167,,27.475039500001003,27.49058050000167,28.49021960000391,28.49021960000391,28.49021960000391,28.49021960000391,28.49021960000391,29.489383299995097,29.489383299995097,29.873639500001445,x,1,0.3750212000013562,None,,,,,,,,,,,,,,,ishita,001,2024-10-16_15h20.56.519,Motor Sequence,2024.2.2,60.08900383515513,2024-10-16 15h21.06.325936 +0530,
150,v,13,1,3,v,1,0.23469500000646804,None,,,,,3,1,13,1,,,,,29.88930330000585,,29.873932100003003,29.88930330000585,30.888544100002036,30.888544100002036,30.888544100002036,30.888544100002036,30.888544100002036,31.888764000002993,31.888764000002993,32.13958430000639,v,1,0.23469500000646804,None,,,,,,,,,,,,,,,ishita,001,2024-10-16_15h20.56.519,Motor Sequence,2024.2.2,60.08900383515513,2024-10-16 15h21.06.325936 +0530,
50,c,14,2,3,c,1,0.30781349999597296,None,,,,,3,2,14,2,,,,,32.155361700002686,,32.13996460000635,32.155361700002686,33.15494110000145,33.15494110000145,33.15494110000145,33.15494110000145,33.15494110000145,34.153964500001166,34.153964500001166,34.47196789999725,c,1,0.30781349999597296,None,,,,,,,,,,,,,,,ishita,001,2024-10-16_15h20.56.519,Motor Sequence,2024.2.2,60.08900383515513,2024-10-16 15h21.06.325936 +0530,
-150,z,15,3,3,z,1,0.42123900000297,None,,,,,3,3,15,3,,,,,34.48723959999916,,34.47234639999806,34.48723959999916,35.487294300008216,35.487294300008216,35.487294300008216,35.487294300008216,35.487294300008216,36.486379699999816,36.486379699999816,36.920884300008765,z,1,0.42123900000297,None,,,,,,,,,,,,,,,ishita,001,2024-10-16_15h20.56.519,Motor Sequence,2024.2.2,60.08900383515513,2024-10-16 15h21.06.325936 +0530,
-50,x,16,0,4,x,1,0.28430570001364686,None,,,,,4,0,16,0,,,,,36.93656060000649,,36.92120660000364,36.93656060000649,37.935681300004944,37.935681300004944,37.935681300004944,37.935681300004944,37.935681300004944,38.93505699999514,38.93505699999514,39.23617020000529,x,1,0.28430570001364686,None,,,,,,,,,,,,,,,ishita,001,2024-10-16_15h20.56.519,Motor Sequence,2024.2.2,60.08900383515513,2024-10-16 15h21.06.325936 +0530,
150,v,17,1,4,v,1,0.30022630000894424,None,,,,,4,1,17,1,,,,,39.251746099995216,,39.236452199998894,39.251746099995216,40.25149640000018,40.25149640000018,40.25149640000018,40.25149640000018,40.25149640000018,41.251470100003644,41.251470100003644,41.55331560000195,v,1,0.30022630000894424,None,,,,,,,,,,,,,,,ishita,001,2024-10-16_15h20.56.519,Motor Sequence,2024.2.2,60.08900383515513,2024-10-16 15h21.06.325936 +0530,
50,c,18,2,4,c,1,0.25151880001067184,None,,,,,4,2,18,2,,,,,41.56760530000611,,41.553692400004365,41.56760530000611,42.56715930000064,42.56715930000064,42.56715930000064,42.56715930000064,42.56715930000064,43.566978700007894,43.566978700007894,43.8343506000092,c,1,0.25151880001067184,None,,,,,,,,,,,,,,,ishita,001,2024-10-16_15h20.56.519,Motor Sequence,2024.2.2,60.08900383515513,2024-10-16 15h21.06.325936 +0530,
-150,z,19,3,4,z,1,0.3455598000000464,None,,,,,4,3,19,3,,,,,43.84986600000411,,43.83473539999977,43.84986600000411,44.83351979999861,44.83351979999861,44.83351979999861,44.83351979999861,44.850175900006434,45.84922479999659,45.84922479999659,46.20030690000567,z,1,0.3455598000000464,None,,,,,,,,,,,,,,,ishita,001,2024-10-16_15h20.56.519,Motor Sequence,2024.2.2,60.08900383515513,2024-10-16 15h21.06.325936 +0530,
-50,x,20,0,5,x,1,0.30840100000204984,None,,,,,5,0,20,0,,,,,46.21583319999627,,46.200616300004185,46.21583319999627,47.2150563000032,47.2150563000032,47.2150563000032,47.2150563000032,47.2150563000032,48.21450550000009,48.21450550000009,48.53298420000647,x,1,0.30840100000204984,None,,,,,,,,,,,,,,,ishita,001,2024-10-16_15h20.56.519,Motor Sequence,2024.2.2,60.08900383515513,2024-10-16 15h21.06.325936 +0530,
150,v,21,1,5,v,1,0.5736084999953164,None,,,,,5,1,21,1,,,,,48.54754490000778,,48.53331080000498,48.54754490000778,49.54756960000668,49.54756960000668,49.54756960000668,49.54756960000668,49.54756960000668,50.54692580000847,50.54692580000847,51.13104599999497,v,1,0.5736084999953164,None,,,,,,,,,,,,,,,ishita,001,2024-10-16_15h20.56.519,Motor Sequence,2024.2.2,60.08900383515513,2024-10-16 15h21.06.325936 +0530,
50,c,22,2,5,c,1,0.2650584999937564,None,,,,,5,2,22,2,,,,,51.146808799996506,,51.13135460000194,51.146808799996506,52.14671030000318,52.14671030000318,52.14671030000318,52.14671030000318,52.14671030000318,53.146351999996114,53.146351999996114,53.41352159999951,c,1,0.2650584999937564,None,,,,,,,,,,,,,,,ishita,001,2024-10-16_15h20.56.519,Motor Sequence,2024.2.2,60.08900383515513,2024-10-16 15h21.06.325936 +0530,
-150,z,23,3,5,z,1,0.19114330000593327,None,,,,,5,3,23,3,,,,,53.4289262000093,,53.413824100003694,53.4289262000093,54.428824300004635,54.428824300004635,54.428824300004635,54.428824300004635,54.428824300004635,55.42913140000019,55.42913140000019,55.62978580000345,z,1,0.19114330000593327,None,,,,,,,,,,,,,,,ishita,001,2024-10-16_15h20.56.519,Motor Sequence,2024.2.2,60.08900383515513,2024-10-16 15h21.06.325936 +0530,
-50,x,24,0,6,x,1,1.204476099999738,None,,,,,6,0,24,0,,,,,55.64556879999873,,55.63009350000357,55.64556879999873,56.644691699999385,56.644691699999385,56.644691699999385,56.644691699999385,56.644691699999385,57.644055700002355,57.644055700002355,58.86099359999935,x,1,1.204476099999738,None,,,,,,,,,,,,,,,ishita,001,2024-10-16_15h20.56.519,Motor Sequence,2024.2.2,60.08900383515513,2024-10-16 15h21.06.325936 +0530,
150,v,25,1,6,v,1,0.30912190000526607,None,,,,,6,1,25,1,,,,,58.8764508000022,,58.861401100002695,58.8764508000022,59.87640370000736,59.87640370000736,59.87640370000736,59.87640370000736,59.87640370000736,60.87649209999654,60.87649209999654,61.19326590000128,v,1,0.30912190000526607,None,,,,,,,,,,,,,,,ishita,001,2024-10-16_15h20.56.519,Motor Sequence,2024.2.2,60.08900383515513,2024-10-16 15h21.06.325936 +0530,
50,c,26,2,6,c,1,0.26265309999871533,None,,,,,6,2,26,2,,,,,61.20910100000037,,61.19359439999971,61.20910100000037,62.208508900002926,62.208508900002926,62.208508900002926,62.208508900002926,62.208508900002926,63.20848450000631,63.20848450000631,63.476015100008226,c,1,0.26265309999871533,None,,,,,,,,,,,,,,,ishita,001,2024-10-16_15h20.56.519,Motor Sequence,2024.2.2,60.08900383515513,2024-10-16 15h21.06.325936 +0530,
-150,z,27,3,6,z,1,0.2680849999887869,None,,,,,6,3,27,3,,,,,63.49180570000317,,63.47633869999845,63.49180570000317,64.49091940000653,64.49091940000653,64.49091940000653,64.49091940000653,64.50763599999482,65.49079870000423,65.49079870000423,65.77484320000804,z,1,0.2680849999887869,None,,,,,,,,,,,,,,,ishita,001,2024-10-16_15h20.56.519,Motor Sequence,2024.2.2,60.08900383515513,2024-10-16 15h21.06.325936 +0530,
-50,x,28,0,7,x,1,0.2757908000057796,None,,,,,7,0,28,0,,,,,65.79064930000459,,65.77520360000199,65.79064930000459,66.79024319999735,66.79024319999735,66.79024319999735,66.79024319999735,66.79024319999735,67.78972040000372,67.78972040000372,68.07424260000698,x,1,0.2757908000057796,None,,,,,,,,,,,,,,,ishita,001,2024-10-16_15h20.56.519,Motor Sequence,2024.2.2,60.08900383515513,2024-10-16 15h21.06.325936 +0530,
150,v,29,1,7,v,1,0.3358979000040563,None,,,,,7,1,29,1,,,,,68.0896070000017,,68.07454610000423,68.0896070000017,69.08907650000765,69.08907650000765,69.08907650000765,69.08907650000765,69.08907650000765,70.08839750000334,70.08839750000334,70.43935460000648,v,1,0.3358979000040563,None,,,,,,,,,,,,,,,ishita,001,2024-10-16_15h20.56.519,Motor Sequence,2024.2.2,60.08900383515513,2024-10-16 15h21.06.325936 +0530,
50,c,30,2,7,c,1,0.19351240000105463,None,,,,,7,2,30,2,,,,,70.45532960000855,,70.43968969999696,70.45532960000855,71.45507500000531,71.45507500000531,71.45507500000531,71.45507500000531,71.45507500000531,72.45469440000306,72.45469440000306,72.65504559999681,c,1,0.19351240000105463,None,,,,,,,,,,,,,,,ishita,001,2024-10-16_15h20.56.519,Motor Sequence,2024.2.2,60.08900383515513,2024-10-16 15h21.06.325936 +0530,
-150,z,31,3,7,z,1,0.3173335999890696,None,,,,,7,3,31,3,,,,,72.67041400000744,,72.65539770000032,72.67041400000744,73.67056250000314,73.67056250000314,73.67056250000314,73.67056250000314,73.67056250000314,74.6700348000013,74.6700348000013,75.00467769999523,z,1,0.3173335999890696,None,,,,,,,,,,,,,,,ishita,001,2024-10-16_15h20.56.519,Motor Sequence,2024.2.2,60.08900383515513,2024-10-16 15h21.06.325936 +0530,
-50,x,32,0,8,x,1,0.456011899994337,None,,,,,8,0,32,0,,,,,75.01964240000234,,75.0049932999973,75.01964240000234,76.01921660000517,76.01921660000517,76.01921660000517,76.01921660000517,76.01921660000517,77.0185463000089,77.0185463000089,77.48677400000452,x,1,0.456011899994337,None,,,,,,,,,,,,,,,ishita,001,2024-10-16_15h20.56.519,Motor Sequence,2024.2.2,60.08900383515513,2024-10-16 15h21.06.325936 +0530,
150,v,33,1,8,v,1,0.3752200000017183,None,,,,,8,1,33,1,,,,,77.50211260000651,,77.48712689999957,77.50211260000651,78.50193579999905,78.50193579999905,78.50193579999905,78.50193579999905,78.50193579999905,79.50092649999715,79.50092649999715,79.88564279999991,v,1,0.3752200000017183,None,,,,,,,,,,,,,,,ishita,001,2024-10-16_15h20.56.519,Motor Sequence,2024.2.2,60.08900383515513,2024-10-16 15h21.06.325936 +0530,
50,c,34,2,8,c,1,0.3013765999930911,None,,,,,8,2,34,2,,,,,79.90116049999779,,79.88596890000917,79.90116049999779,80.90098289999878,80.90098289999878,80.90098289999878,80.90098289999878,80.90098289999878,81.90082090000215,81.90082090000215,82.21749720000662,c,1,0.3013765999930911,None,,,,,,,,,,,,,,,ishita,001,2024-10-16_15h20.56.519,Motor Sequence,2024.2.2,60.08900383515513,2024-10-16 15h21.06.325936 +0530,
-150,z,35,3,8,z,1,0.292097500001546,None,,,,,8,3,35,3,,,,,82.23336549999658,,82.21782710000116,82.23336549999658,83.21703600000183,83.21703600000183,83.21703600000183,83.21703600000183,83.23284630000126,84.23256590000528,84.23256590000528,84.53397210000549,z,1,0.292097500001546,None,,,,,,,,,,,,,,,ishita,001,2024-10-16_15h20.56.519,Motor Sequence,2024.2.2,60.08900383515513,2024-10-16 15h21.06.325936 +0530,
-50,x,36,0,9,x,1,0.4087003000022378,None,,,,,9,0,36,0,,,,,84.54869440000039,,84.53428089999943,84.54869440000039,85.54873380000936,85.54873380000936,85.54873380000936,85.54873380000936,85.54873380000936,86.54776810000476,86.54776810000476,86.96510590000253,x,1,0.4087003000022378,None,,,,,,,,,,,,,,,ishita,001,2024-10-16_15h20.56.519,Motor Sequence,2024.2.2,60.08900383515513,2024-10-16 15h21.06.325936 +0530,
150,v,37,1,9,v,1,0.3343574000027729,None,,,,,9,1,37,1,,,,,86.98100840000552,,86.96539579999808,86.98100840000552,87.98094019999553,87.98094019999553,87.98094019999553,87.98094019999553,87.98094019999553,88.98054659999616,88.98054659999616,89.33073210000293,v,1,0.3343574000027729,None,,,,,,,,,,,,,,,ishita,001,2024-10-16_15h20.56.519,Motor Sequence,2024.2.2,60.08900383515513,2024-10-16 15h21.06.325936 +0530,
50,c,38,2,9,c,1,0.3567685000016354,None,,,,,9,2,38,2,,,,,89.34682940000494,,89.33103329999722,89.34682940000494,90.34666100000322,90.34666100000322,90.34666100000322,90.34666100000322,90.34666100000322,91.3458990000072,91.3458990000072,91.71382089999679,c,1,0.3567685000016354,None,,,,,,,,,,,,,,,ishita,001,2024-10-16_15h20.56.519,Motor Sequence,2024.2.2,60.08900383515513,2024-10-16 15h21.06.325936 +0530,
-150,z,39,3,9,z,1,0.294364500005031,None,,,,,9,3,39,3,,,,,91.72910300000513,,91.71413269999903,91.72910300000513,92.72900310000114,92.72900310000114,92.72900310000114,92.72900310000114,92.72900310000114,93.72789890000422,93.72789890000422,94.02928750000137,z,1,0.294364500005031,None,,,,,,,,,,,,,,,ishita,001,2024-10-16_15h20.56.519,Motor Sequence,2024.2.2,60.08900383515513,2024-10-16 15h21.06.325936 +0530,
-50,x,40,0,10,x,1,0.3121471000049496,None,,,,,10,0,40,0,,,,,94.04478250000102,,94.0296423999971,94.04478250000102,95.0443135999958,95.0443135999958,95.0443135999958,95.0443135999958,95.0443135999958,96.04397210000025,96.04397210000025,96.36177070000849,x,1,0.3121471000049496,None,,,,,,,,,,,,,,,ishita,001,2024-10-16_15h20.56.519,Motor Sequence,2024.2.2,60.08900383515513,2024-10-16 15h21.06.325936 +0530,
150,v,41,1,10,v,1,0.2680294000019785,None,,,,,10,1,41,1,,,,,96.37692850000167,,96.36206050000328,96.37692850000167,97.37687780000851,97.37687780000851,97.37687780000851,97.37687780000851,97.37687780000851,98.37631120000151,98.37631120000151,98.66002360000857,v,1,0.2680294000019785,None,,,,,,,,,,,,,,,ishita,001,2024-10-16_15h20.56.519,Motor Sequence,2024.2.2,60.08900383515513,2024-10-16 15h21.06.325936 +0530,
50,c,42,2,10,c,1,0.2379445999977179,None,,,,,10,2,42,2,,,,,98.67638869999791,,98.66035200000624,98.67638869999791,99.65931920000003,99.65931920000003,99.65931920000003,99.65931920000003,99.6767017999955,100.67545759999484,100.67545759999484,100.92646960000275,c,1,0.2379445999977179,None,,,,,,,,,,,,,,,ishita,001,2024-10-16_15h20.56.519,Motor Sequence,2024.2.2,60.08900383515513,2024-10-16 15h21.06.325936 +0530,
-150,z,43,3,10,z,1,0.23355410000658594,None,,,,,10,3,43,3,,,,,100.9419290000078,,100.92677859999822,100.9419290000078,101.94207639999513,101.94207639999513,101.94207639999513,101.94207639999513,101.94207639999513,102.94124129999545,102.94124129999545,103.17630420000933,z,1,0.23355410000658594,None,,,,,,,,,,,,,,,ishita,001,2024-10-16_15h20.56.519,Motor Sequence,2024.2.2,60.08900383515513,2024-10-16 15h21.06.325936 +0530,
-50,x,44,0,11,x,1,0.7899814999982482,None,,,,,11,0,44,0,,,,,103.19114640000043,,103.1766162999993,103.19114640000043,104.19082820000767,104.19082820000767,104.19082820000767,104.19082820000767,104.19082820000767,105.19014659999812,105.19014659999812,105.99096500000451,x,1,0.7899814999982482,None,,,,,,,,,,,,,,,ishita,001,2024-10-16_15h20.56.519,Motor Sequence,2024.2.2,60.08900383515513,2024-10-16 15h21.06.325936 +0530,
150,v,45,1,11,v,1,0.2922475000086706,None,,,,,11,1,45,1,,,,,106.0065045000083,,105.99130460000015,106.0065045000083,107.00612829999591,107.00612829999591,107.00612829999591,107.00612829999591,107.00612829999591,108.00516359999892,108.00516359999892,108.30637520000164,v,1,0.2922475000086706,None,,,,,,,,,,,,,,,ishita,001,2024-10-16_15h20.56.519,Motor Sequence,2024.2.2,60.08900383515513,2024-10-16 15h21.06.325936 +0530,
50,c,46,2,11,c,1,0.22777369999676012,None,,,,,11,2,46,2,,,,,108.32164150000608,,108.3066780000081,108.32164150000608,109.32145499999751,109.32145499999751,109.32145499999751,109.32145499999751,109.32145499999751,110.31292229999963,110.31292229999963,110.54760560000432,c,1,0.22777369999676012,None,,,,,,,,,,,,,,,ishita,001,2024-10-16_15h20.56.519,Motor Sequence,2024.2.2,60.08900383515513,2024-10-16 15h21.06.325936 +0530,
-150,z,47,3,11,z,1,0.25814060000993777,None,,,,,11,3,47,3,,,,,110.56257870000263,,110.54808839999896,110.56257870000263,111.56206569999631,111.56206569999631,111.56206569999631,111.56206569999631,111.56206569999631,112.56162170000607,112.56162170000607,112.82904789999884,z,1,0.25814060000993777,None,,,,,,,,,,,,,,,ishita,001,2024-10-16_15h20.56.519,Motor Sequence,2024.2.2,60.08900383515513,2024-10-16 15h21.06.325936 +0530,
-50,x,48,0,12,x,1,0.2528381000010995,None,,,,,12,0,48,0,,,,,112.8447598000057,,112.82934810000006,112.8447598000057,113.84545320000325,113.84545320000325,113.84545320000325,113.84545320000325,113.84545320000325,114.8438385000045,114.8438385000045,115.11182990000816,x,1,0.2528381000010995,None,,,,,,,,,,,,,,,ishita,001,2024-10-16_15h20.56.519,Motor Sequence,2024.2.2,60.08900383515513,2024-10-16 15h21.06.325936 +0530,
150,v,49,1,12,v,1,0.3382156000006944,None,,,,,12,1,49,1,,,,,115.12739059999876,,115.11216930000228,115.12739059999876,116.12691489999997,116.12691489999997,116.12691489999997,116.12691489999997,116.12691489999997,117.12619940000877,117.12619940000877,117.47719879999931,v,1,0.3382156000006944,None,,,,,,,,,,,,,,,ishita,001,2024-10-16_15h20.56.519,Motor Sequence,2024.2.2,60.08900383515513,2024-10-16 15h21.06.325936 +0530,
50,c,50,2,12,c,1,0.3604451999999583,None,,,,,12,2,50,2,,,,,117.49268239999947,,117.4775140999991,117.49268239999947,118.49290630000178,118.49290630000178,118.49290630000178,118.49290630000178,118.49290630000178,119.49206400000548,119.49206400000548,119.8597221999953,c,1,0.3604451999999583,None,,,,,,,,,,,,,,,ishita,001,2024-10-16_15h20.56.519,Motor Sequence,2024.2.2,60.08900383515513,2024-10-16 15h21.06.325936 +0530,
-150,z,51,3,12,z,1,0.24710870000126306,None,,,,,12,3,51,3,,,,,119.87509560000035,,119.86009519999789,119.87509560000035,120.87472649999836,120.87472649999836,120.87472649999836,120.87472649999836,120.87472649999836,121.87443650000205,121.87443650000205,122.12544820000767,z,1,0.24710870000126306,None,,,,,,,,,,,,,,,ishita,001,2024-10-16_15h20.56.519,Motor Sequence,2024.2.2,60.08900383515513,2024-10-16 15h21.06.325936 +0530,
-50,x,52,0,13,x,1,0.20948380000481848,None,,,,,13,0,52,0,,,,,122.14096570000402,,122.12575790000847,122.14096570000402,123.14105120000022,123.14105120000022,123.14105120000022,123.14105120000022,123.14105120000022,124.14009440000518,124.14009440000518,124.35800380000728,x,1,0.20948380000481848,None,,,,,,,,,,,,,,,ishita,001,2024-10-16_15h20.56.519,Motor Sequence,2024.2.2,60.08900383515513,2024-10-16 15h21.06.325936 +0530,
150,v,53,1,13,v,1,0.16681900000548922,None,,,,,13,1,53,1,,,,,124.37306850000459,,124.35833440000715,124.37306850000459,125.37327369999548,125.37327369999548,125.37327369999548,125.37327369999548,125.37327369999548,126.37271049999981,126.37271049999981,126.55710810000892,v,1,0.16681900000548922,None,,,,,,,,,,,,,,,ishita,001,2024-10-16_15h20.56.519,Motor Sequence,2024.2.2,60.08900383515513,2024-10-16 15h21.06.325936 +0530,
50,c,54,2,13,c,1,0.13752070000919048,None,,,,,13,2,54,2,,,,,126.57236230000854,,126.55753299999924,126.57236230000854,127.57209050000529,127.57209050000529,127.57209050000529,127.57209050000529,127.57209050000529,128.57188820000738,128.57188820000738,128.72291810000024,c,1,0.13752070000919048,None,,,,,,,,,,,,,,,ishita,001,2024-10-16_15h20.56.519,Motor Sequence,2024.2.2,60.08900383515513,2024-10-16 15h21.06.325936 +0530,
-150,z,55,3,13,z,1,0.23973189998650923,None,,,,,13,3,55,3,,,,,128.73799439999857,,128.7232260000019,128.73799439999857,129.7376923999982,129.7376923999982,129.7376923999982,129.7376923999982,129.7376923999982,130.7376796000026,130.7376796000026,130.98807880000095,z,1,0.23973189998650923,None,,,,,,,,,,,,,,,ishita,001,2024-10-16_15h20.56.519,Motor Sequence,2024.2.2,60.08900383515513,2024-10-16 15h21.06.325936 +0530,
-50,x,56,0,14,x,1,0.20059799999580719,None,,,,,14,0,56,0,,,,,131.00376760000654,,130.98838049999904,131.00376760000654,132.0039007000014,132.0039007000014,132.0039007000014,132.0039007000014,132.0039007000014,133.00305410000146,133.00305410000146,133.22047129999555,x,1,0.20059799999580719,None,,,,,,,,,,,,,,,ishita,001,2024-10-16_15h20.56.519,Motor Sequence,2024.2.2,60.08900383515513,2024-10-16 15h21.06.325936 +0530,
150,v,57,1,14,v,1,0.8560262999963015,None,,,,,14,1,57,1,,,,,133.23633040000277,,133.2207633000071,133.23633040000277,134.2357883000077,134.2357883000077,134.2357883000077,134.2357883000077,134.2357883000077,135.23537199999555,135.23537199999555,136.1027114000026,v,1,0.8560262999963015,None,,,,,,,,,,,,,,,ishita,001,2024-10-16_15h20.56.519,Motor Sequence,2024.2.2,60.08900383515513,2024-10-16 15h21.06.325936 +0530,
50,c,58,2,14,c,1,0.7009849000023678,None,,,,,14,2,58,2,,,,,136.11855650000507,,136.1030039000034,136.11855650000507,137.11810200000764,137.11810200000764,137.11810200000764,137.11810200000764,137.11810200000764,138.11768989999837,138.11768989999837,138.83520689999568,c,1,0.7009849000023678,None,,,,,,,,,,,,,,,ishita,001,2024-10-16_15h20.56.519,Motor Sequence,2024.2.2,60.08900383515513,2024-10-16 15h21.06.325936 +0530,
-150,z,59,3,14,z,1,0.4415908000082709,None,,,,,14,3,59,3,,,,,138.85020149999764,,138.8355453999975,138.85020149999764,139.85021499999857,139.85021499999857,139.85021499999857,139.85021499999857,139.85021499999857,140.84985620000225,140.84985620000225,141.3000721999997,z,1,0.4415908000082709,None,,,,,,,,,,,,,,,ishita,001,2024-10-16_15h20.56.519,Motor Sequence,2024.2.2,60.08900383515513,2024-10-16 15h21.06.325936 +0530,
-50,x,60,0,15,x,1,0.1708138000103645,None,,,,,15,0,60,0,,,,,141.3159580000065,,141.30036649999965,141.3159580000065,142.29903720000584,142.29903720000584,142.29903720000584,142.29903720000584,142.31597809999948,143.31512010000006,143.31512010000006,143.49984079999558,x,1,0.1708138000103645,None,,,,,,,,,,,,,,,ishita,001,2024-10-16_15h20.56.519,Motor Sequence,2024.2.2,60.08900383515513,2024-10-16 15h21.06.325936 +0530,
150,v,61,1,15,v,1,0.712332700000843,None,,,,,15,1,61,1,,,,,143.5147910000087,,143.50026159999834,143.5147910000087,144.51442469999893,144.51442469999893,144.51442469999893,144.51442469999893,144.51442469999893,145.51442870000028,145.51442870000028,146.231549300006,v,1,0.712332700000843,None,,,,,,,,,,,,,,,ishita,001,2024-10-16_15h20.56.519,Motor Sequence,2024.2.2,60.08900383515513,2024-10-16 15h21.06.325936 +0530,
50,c,62,2,15,c,1,0.5431987000047229,None,,,,,15,2,62,2,,,,,146.24723219999578,,146.2319109999953,146.24723219999578,147.24668080000265,147.24668080000265,147.24668080000265,147.24668080000265,147.24668080000265,148.24648689999594,148.24648689999594,148.79746200000227,c,1,0.5431987000047229,None,,,,,,,,,,,,,,,ishita,001,2024-10-16_15h20.56.519,Motor Sequence,2024.2.2,60.08900383515513,2024-10-16 15h21.06.325936 +0530,
-150,z,63,3,15,z,1,1.9494771000026958,None,,,,,15,3,63,3,,,,,148.81263850000687,,148.79777520000061,148.81263850000687,149.81201950000832,149.81201950000832,149.81201950000832,149.81201950000832,149.81201950000832,150.81240389999584,150.81240389999584,152.7792383000051,z,1,1.9494771000026958,None,,,,,,,,,,,,,,,ishita,001,2024-10-16_15h20.56.519,Motor Sequence,2024.2.2,60.08900383515513,2024-10-16 15h21.06.325936 +0530,
-50,x,64,0,16,x,1,5.355406299990136,None,,,,,16,0,64,0,,,,,152.7947814000072,,152.77961440000217,152.7947814000072,153.79438089999894,153.79438089999894,153.79438089999894,153.79438089999894,153.79438089999894,154.7936214000074,154.7936214000074,160.15949479999836,x,1,5.355406299990136,None,,,,,,,,,,,,,,,ishita,001,2024-10-16_15h20.56.519,Motor Sequence,2024.2.2,60.08900383515513,2024-10-16 15h21.06.325936 +0530,
150,v,65,1,16,space,0,0.05240109999431297,None,,,,,16,1,65,1,,,,,160.1744092000008,,160.1598146000033,160.1744092000008,161.17463839999982,161.17463839999982,161.17463839999982,161.17463839999982,161.17463839999982,162.17330870000296,162.17330870000296,162.24149390000093,space,0,0.05240109999431297,None,,,,,,,,,,,,,,,ishita,001,2024-10-16_15h20.56.519,Motor Sequence,2024.2.2,60.08900383515513,2024-10-16 15h21.06.325936 +0530,
50,c,66,2,16,c,1,0.979871000003186,None,,,,,16,2,66,2,,,,,162.25693820000743,,162.2418708000041,162.25693820000743,163.25710070000787,163.25710070000787,163.25710070000787,163.25710070000787,163.25710070000787,164.25591880000138,164.25591880000138,165.24052410000877,c,1,0.979871000003186,None,,,,,,,,,,,,,,,ishita,001,2024-10-16_15h20.56.519,Motor Sequence,2024.2.2,60.08900383515513,2024-10-16 15h21.06.325936 +0530,
-150,z,67,3,16,z,1,0.37466739999945275,None,,,,,16,3,67,3,,,,,165.25588160000916,,165.24084790000052,165.25588160000916,166.25555610000447,166.25555610000447,166.25555610000447,166.25555610000447,166.25555610000447,167.25503970000136,167.25503970000136,167.63921649999975,z,1,0.37466739999945275,None,,,,,,,,,,,,,,,ishita,001,2024-10-16_15h20.56.519,Motor Sequence,2024.2.2,60.08900383515513,2024-10-16 15h21.06.325936 +0530,
-50,x,68,0,17,x,1,1.0140105999889784,None,,,,,17,0,68,0,,,,,167.65453240000352,,167.63955310000165,167.65453240000352,168.65409490000457,168.65409490000457,168.65409490000457,168.65409490000457,168.65409490000457,169.6537582000019,169.6537582000019,170.67092430000775,x,1,1.0140105999889784,None,,,,,,,,,,,,,,,ishita,001,2024-10-16_15h20.56.519,Motor Sequence,2024.2.2,60.08900383515513,2024-10-16 15h21.06.325936 +0530,
150,v,69,1,17,v,1,0.22718679999525193,None,,,,,17,1,69,1,,,,,170.68656309999642,,170.67122540000128,170.68656309999642,171.68619910000416,171.68619910000416,171.68619910000416,171.68619910000416,171.68619910000416,172.68577850000293,172.68577850000293,172.92027919999964,v,1,0.22718679999525193,None,,,,,,,,,,,,,,,ishita,001,2024-10-16_15h20.56.519,Motor Sequence,2024.2.2,60.08900383515513,2024-10-16 15h21.06.325936 +0530,
50,c,70,2,17,c,1,0.7067844999983208,None,,,,,17,2,70,2,,,,,172.935698900008,,172.92061430000467,172.935698900008,173.93548620000365,173.93548620000365,173.93548620000365,173.93548620000365,173.93548620000365,174.935278799996,174.935278799996,175.65215320000425,c,1,0.7067844999983208,None,,,,,,,,,,,,,,,ishita,001,2024-10-16_15h20.56.519,Motor Sequence,2024.2.2,60.08900383515513,2024-10-16 15h21.06.325936 +0530,
-150,z,71,3,17,z,1,0.3607027999969432,None,,,,,17,3,71,3,,,,,175.66766500000085,,175.65246050000133,175.66766500000085,176.66731849999633,176.66731849999633,176.66731849999633,176.66731849999633,176.66731849999633,177.66694730000745,177.66694730000745,178.0343001000001,z,1,0.3607027999969432,None,,,,,,,,,,,,,,,ishita,001,2024-10-16_15h20.56.519,Motor Sequence,2024.2.2,60.08900383515513,2024-10-16 15h21.06.325936 +0530,
-50,x,72,0,18,x,1,0.9777711999922758,None,,,,,18,0,72,0,,,,,178.05062039999757,,178.03469410000253,178.05062039999757,179.0500003000052,179.0500003000052,179.0500003000052,179.0500003000052,179.0664894000074,180.04956500000844,180.04956500000844,181.0337428000057,x,1,0.9777711999922758,None,,,,,,,,,,,,,,,ishita,001,2024-10-16_15h20.56.519,Motor Sequence,2024.2.2,60.08900383515513,2024-10-16 15h21.06.325936 +0530,
150,v,73,1,18,v,1,0.6290677000069991,None,,,,,18,1,73,1,,,,,181.04877999999735,,181.03406980000727,181.04877999999735,182.04882870000438,182.04882870000438,182.04882870000438,182.04882870000438,182.04882870000438,183.047607600005,183.047607600005,183.68266600000788,v,1,0.6290677000069991,None,,,,,,,,,,,,,,,ishita,001,2024-10-16_15h20.56.519,Motor Sequence,2024.2.2,60.08900383515513,2024-10-16 15h21.06.325936 +0530,
50,c,74,2,18,c,1,0.7585574999975506,None,,,,,18,2,74,2,,,,,183.69816230000288,,183.6829973999993,183.69816230000288,184.6971642999997,184.6971642999997,184.6971642999997,184.6971642999997,184.6971642999997,185.69675010000356,185.69675010000356,186.4641258000047,c,1,0.7585574999975506,None,,,,,,,,,,,,,,,ishita,001,2024-10-16_15h20.56.519,Motor Sequence,2024.2.2,60.08900383515513,2024-10-16 15h21.06.325936 +0530,
-150,z,75,3,18,z,1,0.2178429000050528,None,,,,,18,3,75,3,,,,,186.47973099999945,,186.46441909999703,186.47973099999945,187.47924359999888,187.47924359999888,187.47924359999888,187.47924359999888,187.47924359999888,188.47884239999985,188.47884239999985,188.71284690000175,z,1,0.2178429000050528,None,,,,,,,,,,,,,,,ishita,001,2024-10-16_15h20.56.519,Motor Sequence,2024.2.2,60.08900383515513,2024-10-16 15h21.06.325936 +0530,
-50,x,76,0,19,x,1,0.3002056999976048,None,,,,,19,0,76,0,,,,,188.72843630000716,,188.7131328999967,188.72843630000716,189.72830600000452,189.72830600000452,189.72830600000452,189.72830600000452,189.72830600000452,190.72826060000807,190.72826060000807,191.02987300000677,x,1,0.3002056999976048,None,,,,,,,,,,,,,,,ishita,001,2024-10-16_15h20.56.519,Motor Sequence,2024.2.2,60.08900383515513,2024-10-16 15h21.06.325936 +0530,
150,v,77,1,19,v,1,0.6444883999938611,None,,,,,19,1,77,1,,,,,191.0443890000024,,191.03021060000174,191.0443890000024,192.0436969000002,192.0436969000002,192.0436969000002,192.0436969000002,192.0436969000002,193.0435581000056,193.0435581000056,193.69426869999734,v,1,0.6444883999938611,None,,,,,,,,,,,,,,,ishita,001,2024-10-16_15h20.56.519,Motor Sequence,2024.2.2,60.08900383515513,2024-10-16 15h21.06.325936 +0530,
50,c,78,2,19,c,1,0.005526499997358769,None,,,,,19,2,78,2,,,,,193.7099287000019,,193.69455529999686,193.7099287000019,194.71006850000413,194.71006850000413,194.71006850000413,194.71006850000413,194.71006850000413,195.7090210000024,195.7090210000024,195.72657369999797,c,1,0.005526499997358769,None,,,,,,,,,,,,,,,ishita,001,2024-10-16_15h20.56.519,Motor Sequence,2024.2.2,60.08900383515513,2024-10-16 15h21.06.325936 +0530,
-150,z,79,3,19,z,1,0.271895099998801,None,,,,,19,3,79,3,,,,,195.7422799000051,,195.72684299999673,195.7422799000051,196.72581600000558,196.72581600000558,196.72581600000558,196.72581600000558,196.74257550000038,197.74158329999773,197.74158329999773,198.0259398000053,z,1,0.271895099998801,None,,,,,,,,,,,,,,,ishita,001,2024-10-16_15h20.56.519,Motor Sequence,2024.2.2,60.08900383515513,2024-10-16 15h21.06.325936 +0530,
-50,x,80,0,20,x,1,0.5778451999940444,None,,,,,20,0,80,0,,,,,198.0413542000024,,198.02629239999806,198.0413542000024,199.04103999999643,199.04103999999643,199.04103999999643,199.04103999999643,199.04103999999643,200.04092230000242,200.04092230000242,200.6252150000073,x,1,0.5778451999940444,None,,,,,,,,,,,,,,,ishita,001,2024-10-16_15h20.56.519,Motor Sequence,2024.2.2,60.08900383515513,2024-10-16 15h21.06.325936 +0530,
150,v,81,1,20,v,1,0.630489100003615,None,,,,,20,1,81,1,,,,,200.64043349999702,,200.625526799995,200.64043349999702,201.6398257999972,201.6398257999972,201.6398257999972,201.6398257999972,201.6398257999972,202.63970020000124,202.63970020000124,203.273463000005,v,1,0.630489100003615,None,,,,,,,,,,,,,,,ishita,001,2024-10-16_15h20.56.519,Motor Sequence,2024.2.2,60.08900383515513,2024-10-16 15h21.06.325936 +0530,
50,c,82,2,20,c,1,0.5904164999956265,None,,,,,20,2,82,2,,,,,203.28923019999638,,203.27377169999818,203.28923019999638,204.2893686000025,204.2893686000025,204.2893686000025,204.2893686000025,204.2893686000025,205.28848489999655,205.28848489999655,205.8887759000063,c,1,0.5904164999956265,None,,,,,,,,,,,,,,,ishita,001,2024-10-16_15h20.56.519,Motor Sequence,2024.2.2,60.08900383515513,2024-10-16 15h21.06.325936 +0530,
-150,z,83,3,20,z,1,0.39991619999636896,None,,,,,20,3,83,3,,,,,205.90476510000008,,205.88909860000422,205.90476510000008,206.88762890000362,206.88762890000362,206.88762890000362,206.88762890000362,206.90480170000228,207.90412110000034,207.90412110000034,208.32126860000426,z,1,0.39991619999636896,None,,,,,,,,,,,,,,,ishita,001,2024-10-16_15h20.56.519,Motor Sequence,2024.2.2,60.08900383515513,2024-10-16 15h21.06.325936 +0530,
-50,x,84,0,21,x,1,0.5716270999982953,None,,,,,21,0,84,0,,,,,208.3370181000064,,208.3216301000066,208.3370181000064,209.3201451000059,209.3201451000059,209.3201451000059,209.3201451000059,209.33702500000072,210.3362186000013,210.3362186000013,210.92047510000702,x,1,0.5716270999982953,None,,,,,,,,,,,,,,,ishita,001,2024-10-16_15h20.56.519,Motor Sequence,2024.2.2,60.08900383515513,2024-10-16 15h21.06.325936 +0530,
150,v,85,1,21,v,1,0.28124490000482183,None,,,,,21,1,85,1,,,,,210.9358757000009,,210.92081080000207,210.9358757000009,211.93543929999578,211.93543929999578,211.93543929999578,211.93543929999578,211.93543929999578,212.93496779999987,212.93496779999987,213.21940180000092,v,1,0.28124490000482183,None,,,,,,,,,,,,,,,ishita,001,2024-10-16_15h20.56.519,Motor Sequence,2024.2.2,60.08900383515513,2024-10-16 15h21.06.325936 +0530,
50,c,86,2,21,c,1,0.520462000000407,None,,,,,21,2,86,2,,,,,213.23479190000216,,213.21977890000562,213.23479190000216,214.2345714999974,214.2345714999974,214.2345714999974,214.2345714999974,214.2345714999974,215.23492810000607,215.23492810000607,215.76791090000188,c,1,0.520462000000407,None,,,,,,,,,,,,,,,ishita,001,2024-10-16_15h20.56.519,Motor Sequence,2024.2.2,60.08900383515513,2024-10-16 15h21.06.325936 +0530,
-150,z,87,3,21,z,1,0.3085992999986047,None,,,,,21,3,87,3,,,,,215.7839251999976,,215.76825480000116,215.7839251999976,216.78352359999553,216.78352359999553,216.78352359999553,216.78352359999553,216.78352359999553,217.78306529999827,217.78306529999827,218.1014159000042,z,1,0.3085992999986047,None,,,,,,,,,,,,,,,ishita,001,2024-10-16_15h20.56.519,Motor Sequence,2024.2.2,60.08900383515513,2024-10-16 15h21.06.325936 +0530,
-50,x,88,0,22,x,1,0.5783038999943528,None,,,,,22,0,88,0,,,,,218.11671760000172,,218.10173629999917,218.11671760000172,219.11586689999967,219.11586689999967,219.11586689999967,219.11586689999967,219.11586689999967,220.1151114999957,220.1151114999957,220.69977960000688,x,1,0.5783038999943528,None,,,,,,,,,,,,,,,ishita,001,2024-10-16_15h20.56.519,Motor Sequence,2024.2.2,60.08900383515513,2024-10-16 15h21.06.325936 +0530,
150,v,89,1,22,v,1,0.29438970000774134,None,,,,,22,1,89,1,,,,,220.71492739999667,,220.70010190000175,220.71492739999667,221.71469920000527,221.71469920000527,221.71469920000527,221.71469920000527,221.71469920000527,222.71397640000214,222.71397640000214,223.0158092000056,v,1,0.29438970000774134,None,,,,,,,,,,,,,,,ishita,001,2024-10-16_15h20.56.519,Motor Sequence,2024.2.2,60.08900383515513,2024-10-16 15h21.06.325936 +0530,
50,c,90,2,22,c,1,0.24731340000289492,None,,,,,22,2,90,2,,,,,223.03058190000593,,223.01612630000454,223.03058190000593,224.03006489999825,224.03006489999825,224.03006489999825,224.03006489999825,224.03006489999825,225.0300195000018,225.0300195000018,225.2806963000039,c,1,0.24731340000289492,None,,,,,,,,,,,,,,,ishita,001,2024-10-16_15h20.56.519,Motor Sequence,2024.2.2,60.08900383515513,2024-10-16 15h21.06.325936 +0530,
-150,z,91,3,22,z,1,0.2877349000045797,None,,,,,22,3,91,3,,,,,225.29641059999994,,225.28101180000522,225.29641059999994,226.29644990000816,226.29644990000816,226.29644990000816,226.29644990000816,226.29644990000816,227.29539630000363,227.29539630000363,227.5966005000082,z,1,0.2877349000045797,None,,,,,,,,,,,,,,,ishita,001,2024-10-16_15h20.56.519,Motor Sequence,2024.2.2,60.08900383515513,2024-10-16 15h21.06.325936 +0530,
-50,x,92,0,23,x,1,0.3168089999962831,None,,,,,23,0,92,0,,,,,227.61222379999526,,227.59694260000833,227.61222379999526,228.6116531000007,228.6116531000007,228.6116531000007,228.6116531000007,228.62841230000777,229.61130990000675,229.61130990000675,229.94513360000565,x,1,0.3168089999962831,None,,,,,,,,,,,,,,,ishita,001,2024-10-16_15h20.56.519,Motor Sequence,2024.2.2,60.08900383515513,2024-10-16 15h21.06.325936 +0530,
150,v,93,1,23,v,1,0.9119807000097353,None,,,,,23,1,93,1,,,,,229.96086269999796,,229.94542830000864,229.96086269999796,230.960877599995,230.960877599995,230.960877599995,230.960877599995,230.960877599995,231.95993330000783,231.95993330000783,232.87690560000192,v,1,0.9119807000097353,None,,,,,,,,,,,,,,,ishita,001,2024-10-16_15h20.56.519,Motor Sequence,2024.2.2,60.08900383515513,2024-10-16 15h21.06.325936 +0530,
50,c,94,2,23,c,1,0.8939783999958308,None,,,,,23,2,94,2,,,,,232.89266990000033,,232.8772070999985,232.89266990000033,233.87608499999624,233.87608499999624,233.87608499999624,233.87608499999624,233.89239730000554,234.8920966000005,234.8920966000005,235.79309180000564,c,1,0.8939783999958308,None,,,,,,,,,,,,,,,ishita,001,2024-10-16_15h20.56.519,Motor Sequence,2024.2.2,60.08900383515513,2024-10-16 15h21.06.325936 +0530,
-150,z,95,3,23,z,1,1.1183061000047019,None,,,,,23,3,95,3,,,,,235.80839269999706,,235.79347810000763,235.80839269999706,236.80770200000552,236.80770200000552,236.80770200000552,236.80770200000552,236.80770200000552,237.80735760000243,237.80735760000243,238.941387400002,z,1,1.1183061000047019,None,,,,,,,,,,,,,,,ishita,001,2024-10-16_15h20.56.519,Motor Sequence,2024.2.2,60.08900383515513,2024-10-16 15h21.06.325936 +0530,
-50,x,96,0,24,x,1,0.7866228000057163,None,,,,,24,0,96,0,,,,,238.95676290000847,,238.9417231999978,238.95676290000847,239.940170700007,239.940170700007,239.940170700007,239.940170700007,239.95655909999914,240.95611800000188,240.95611800000188,241.75737180000579,x,1,0.7866228000057163,None,,,,,,,,,,,,,,,ishita,001,2024-10-16_15h20.56.519,Motor Sequence,2024.2.2,60.08900383515513,2024-10-16 15h21.06.325936 +0530,
150,v,97,1,24,v,1,0.6711175999953412,None,,,,,24,1,97,1,,,,,241.77298280000105,,241.75770970000303,241.77298280000105,242.77231310000934,242.77231310000934,242.77231310000934,242.77231310000934,242.77231310000934,243.77139019999595,243.77139019999595,244.45580300000438,v,1,0.6711175999953412,None,,,,,,,,,,,,,,,ishita,001,2024-10-16_15h20.56.519,Motor Sequence,2024.2.2,60.08900383515513,2024-10-16 15h21.06.325936 +0530,
50,c,98,2,24,c,1,0.6318275000085123,None,,,,,24,2,98,2,,,,,244.47124050000275,,244.45613950000552,244.47124050000275,245.47109120000096,245.47109120000096,245.47109120000096,245.47109120000096,245.47109120000096,246.4711038999958,246.4711038999958,247.10526769999706,c,1,0.6318275000085123,None,,,,,,,,,,,,,,,ishita,001,2024-10-16_15h20.56.519,Motor Sequence,2024.2.2,60.08900383515513,2024-10-16 15h21.06.325936 +0530,
-150,z,99,3,24,z,1,0.3082790000044042,None,,,,,24,3,99,3,,,,,247.1205828999955,,247.10557990000234,247.1205828999955,248.12040159999742,248.12040159999742,248.12040159999742,248.12040159999742,248.12040159999742,249.11893070000224,249.11893070000224,249.43707690000883,z,1,0.3082790000044042,None,,,,,,,,,,,,,,,ishita,001,2024-10-16_15h20.56.519,Motor Sequence,2024.2.2,60.08900383515513,2024-10-16 15h21.06.325936 +0530,
-50,x,100,0,25,x,1,0.3939056000090204,None,,,,,25,0,100,0,,,,,249.45243639999535,,249.43745789999957,249.45243639999535,250.4521151000081,250.4521151000081,250.4521151000081,250.4521151000081,250.4521151000081,251.45207440000377,251.45207440000377,251.8525304000068,x,1,0.3939056000090204,None,,,,,,,,,,,,,,,ishita,001,2024-10-16_15h20.56.519,Motor Sequence,2024.2.2,60.08900383515513,2024-10-16 15h21.06.325936 +0530,
150,v,101,1,25,v,1,0.3434206000092672,None,,,,,25,1,101,1,,,,,251.8682489000057,,251.85285569999542,251.8682489000057,252.86781809999957,252.86781809999957,252.86781809999957,252.86781809999957,252.86781809999957,253.86714889999712,253.86714889999712,254.21927529999812,v,1,0.3434206000092672,None,,,,,,,,,,,,,,,ishita,001,2024-10-16_15h20.56.519,Motor Sequence,2024.2.2,60.08900383515513,2024-10-16 15h21.06.325936 +0530,
50,c,102,2,25,c,1,0.5686645999958273,None,,,,,25,2,102,2,,,,,254.23363580000296,,254.2196139000007,254.23363580000296,255.23356670000067,255.23356670000067,255.23356670000067,255.23356670000067,255.23356670000067,256.2331925000035,256.2331925000035,256.8168494999991,c,1,0.5686645999958273,None,,,,,,,,,,,,,,,ishita,001,2024-10-16_15h20.56.519,Motor Sequence,2024.2.2,60.08900383515513,2024-10-16 15h21.06.325936 +0530,
-150,z,103,3,25,z,1,0.34603299999434967,None,,,,,25,3,103,3,,,,,256.83234110000194,,256.81713959999615,256.83234110000194,257.83270379999885,257.83270379999885,257.83270379999885,257.83270379999885,257.83270379999885,258.83172270000796,258.83172270000796,259.183408900004,z,1,0.34603299999434967,None,,,,,,,,,,,,,,,ishita,001,2024-10-16_15h20.56.519,Motor Sequence,2024.2.2,60.08900383515513,2024-10-16 15h21.06.325936 +0530,
-50,x,104,0,26,x,1,0.4889737000048626,None,,,,,26,0,104,0,,,,,259.1984606000042,,259.18371090000437,259.1984606000042,260.1984730999975,260.1984730999975,260.1984730999975,260.1984730999975,260.1984730999975,261.197742400007,261.197742400007,261.69820310000796,x,1,0.4889737000048626,None,,,,,,,,,,,,,,,ishita,001,2024-10-16_15h20.56.519,Motor Sequence,2024.2.2,60.08900383515513,2024-10-16 15h21.06.325936 +0530,
150,v,105,1,26,v,1,0.6471327000035672,None,,,,,26,1,105,1,,,,,261.7137909000012,,261.6985327000002,261.7137909000012,262.71421479999844,262.71421479999844,262.71421479999844,262.71421479999844,262.71421479999844,263.7127188000013,263.7127188000013,264.3638217999978,v,1,0.6471327000035672,None,,,,,,,,,,,,,,,ishita,001,2024-10-16_15h20.56.519,Motor Sequence,2024.2.2,60.08900383515513,2024-10-16 15h21.06.325936 +0530,
50,c,106,2,26,c,1,0.5213762999919709,None,,,,,26,2,106,2,,,,,264.37951240000257,,264.3641337000008,264.37951240000257,265.37911500000337,265.37911500000337,265.37911500000337,265.37911500000337,265.37911500000337,266.3788782000047,266.3788782000047,266.9131153000053,c,1,0.5213762999919709,None,,,,,,,,,,,,,,,ishita,001,2024-10-16_15h20.56.519,Motor Sequence,2024.2.2,60.08900383515513,2024-10-16 15h21.06.325936 +0530,
-150,z,107,3,26,z,1,0.6014159999904223,None,,,,,26,3,107,3,,,,,266.92844550000154,,266.9135468000022,266.92844550000154,267.92777399999613,267.92777399999613,267.92777399999613,267.92777399999613,267.92777399999613,268.92777890000434,268.92777890000434,269.5449673999974,z,1,0.6014159999904223,None,,,,,,,,,,,,,,,ishita,001,2024-10-16_15h20.56.519,Motor Sequence,2024.2.2,60.08900383515513,2024-10-16 15h21.06.325936 +0530,
-50,x,108,0,27,x,1,0.64229499999783,None,,,,,27,0,108,0,,,,,269.56036990000575,,269.54537029999483,269.56036990000575,270.5599304000061,270.5599304000061,270.5599304000061,270.5599304000061,270.5599304000061,271.55953630000295,271.55953630000295,272.210785400006,x,1,0.64229499999783,None,,,,,,,,,,,,,,,ishita,001,2024-10-16_15h20.56.519,Motor Sequence,2024.2.2,60.08900383515513,2024-10-16 15h21.06.325936 +0530,
150,v,109,1,27,b,0,1.5691691000101855,None,,,,,27,1,109,1,,,,,272.22592510000686,,272.21112130000256,272.22592510000686,273.2255815999961,273.2255815999961,273.2255815999961,273.2255815999961,273.2255815999961,274.22526449999714,274.22526449999714,275.80889690000913,b,0,1.5691691000101855,None,,,,,,,,,,,,,,,ishita,001,2024-10-16_15h20.56.519,Motor Sequence,2024.2.2,60.08900383515513,2024-10-16 15h21.06.325936 +0530,
50,c,110,2,27,v,0,0.8907646000006935,None,,,,,27,2,110,2,,,,,275.8242218000087,,275.8092922000069,275.8242218000087,276.8237689000089,276.8237689000089,276.8237689000089,276.8237689000089,276.8237689000089,277.8234958999965,277.8234958999965,278.7243889000092,v,0,0.8907646000006935,None,,,,,,,,,,,,,,,ishita,001,2024-10-16_15h20.56.519,Motor Sequence,2024.2.2,60.08900383515513,2024-10-16 15h21.06.325936 +0530,
-150,z,111,3,27,z,1,0.32133550000435207,None,,,,,27,3,111,3,,,,,278.74020060000475,,278.7247212000075,278.74020060000475,279.73960960000113,279.73960960000113,279.73960960000113,279.73960960000113,279.73960960000113,280.73948990000645,280.73948990000645,281.07331410000916,z,1,0.32133550000435207,None,,,,,,,,,,,,,,,ishita,001,2024-10-16_15h20.56.519,Motor Sequence,2024.2.2,60.08900383515513,2024-10-16 15h21.06.325936 +0530,
-50,x,112,0,28,x,1,0.31450209999457,None,,,,,28,0,112,0,,,,,281.0887409999996,,281.07362860000285,281.0887409999996,282.0885704999964,282.0885704999964,282.0885704999964,282.0885704999964,282.0885704999964,283.0883724000014,283.0883724000014,283.406137900005,x,1,0.31450209999457,None,,,,,,,,,,,,,,,ishita,001,2024-10-16_15h20.56.519,Motor Sequence,2024.2.2,60.08900383515513,2024-10-16 15h21.06.325936 +0530,
150,v,113,1,28,v,1,0.263082100005704,None,,,,,28,1,113,1,,,,,283.42109479999635,,283.4064528000017,283.42109479999635,284.42085570000927,284.42085570000927,284.42085570000927,284.42085570000927,284.42085570000927,285.42025609999837,285.42025609999837,285.6873976000061,v,1,0.263082100005704,None,,,,,,,,,,,,,,,ishita,001,2024-10-16_15h20.56.519,Motor Sequence,2024.2.2,60.08900383515513,2024-10-16 15h21.06.325936 +0530,
50,c,114,2,28,c,1,0.07660100000794046,None,,,,,28,2,114,2,,,,,285.70337240000663,,285.68770760000916,285.70337240000663,286.70295479999913,286.70295479999913,286.70295479999913,286.70295479999913,286.70295479999913,287.703030500008,287.703030500008,287.7868320999987,c,1,0.07660100000794046,None,,,,,,,,,,,,,,,ishita,001,2024-10-16_15h20.56.519,Motor Sequence,2024.2.2,60.08900383515513,2024-10-16 15h21.06.325936 +0530,
-150,z,115,3,28,z,1,0.24623420000716578,None,,,,,28,3,115,3,,,,,287.8025062000088,,287.78712619999715,287.8025062000088,288.80233150000277,288.80233150000277,288.80233150000277,288.80233150000277,288.80233150000277,289.80139570000756,289.80139570000756,290.05214110000816,z,1,0.24623420000716578,None,,,,,,,,,,,,,,,ishita,001,2024-10-16_15h20.56.519,Motor Sequence,2024.2.2,60.08900383515513,2024-10-16 15h21.06.325936 +0530,
-50,x,116,0,29,x,1,0.20999780000420287,None,,,,,29,0,116,0,,,,,290.06810479999695,,290.05244390000007,290.06810479999695,291.0514412000048,291.0514412000048,291.0514412000048,291.0514412000048,291.06770310000866,292.0676802000089,292.0676802000089,292.2845612999954,x,1,0.20999780000420287,None,,,,,,,,,,,,,,,ishita,001,2024-10-16_15h20.56.519,Motor Sequence,2024.2.2,60.08900383515513,2024-10-16 15h21.06.325936 +0530,
150,v,117,1,29,v,1,0.23437539998849388,None,,,,,29,1,117,1,,,,,292.30028239999956,,292.2849206999963,292.30028239999956,293.30000519999885,293.30000519999885,293.30000519999885,293.30000519999885,293.30000519999885,294.28302709999844,294.28302709999844,294.533937900007,v,1,0.23437539998849388,None,,,,,,,,,,,,,,,ishita,001,2024-10-16_15h20.56.519,Motor Sequence,2024.2.2,60.08900383515513,2024-10-16 15h21.06.325936 +0530,
50,c,118,2,29,c,1,0.5105094999889843,None,,,,,29,2,118,2,,,,,294.54957149999973,,294.5342273999995,294.54957149999973,295.5498920999962,295.5498920999962,295.5498920999962,295.5498920999962,295.5498920999962,296.5491217999952,296.5491217999952,297.0663724000042,c,1,0.5105094999889843,None,,,,,,,,,,,,,,,ishita,001,2024-10-16_15h20.56.519,Motor Sequence,2024.2.2,60.08900383515513,2024-10-16 15h21.06.325936 +0530,
-150,z,119,3,29,z,1,0.3623259000014514,None,,,,,29,3,119,3,,,,,297.08214630000293,,297.0668049000087,297.08214630000293,298.08176270000695,298.08176270000695,298.08176270000695,298.08176270000695,298.08176270000695,299.0810655999958,299.0810655999958,299.4487073000055,z,1,0.3623259000014514,None,,,,,,,,,,,,,,,ishita,001,2024-10-16_15h20.56.519,Motor Sequence,2024.2.2,60.08900383515513,2024-10-16 15h21.06.325936 +0530,
-50,x,120,0,30,x,1,0.12973040000360925,None,,,,,30,0,120,0,,,,,299.4640756000008,,299.44899879999866,299.4640756000008,300.463905800003,300.463905800003,300.463905800003,300.463905800003,300.463905800003,301.4635564000055,301.4635564000055,301.5977167999954,x,1,0.12973040000360925,None,,,,,,,,,,,,,,,ishita,001,2024-10-16_15h20.56.519,Motor Sequence,2024.2.2,60.08900383515513,2024-10-16 15h21.06.325936 +0530,
150,v,121,1,30,v,1,0.23404140000639018,None,,,,,30,1,121,1,,,,,301.61303809999663,,301.5980273000023,301.61303809999663,302.6128776999976,302.6128776999976,302.6128776999976,302.6128776999976,302.6128776999976,303.6122508999979,303.6122508999979,303.8632663000026,v,1,0.23404140000639018,None,,,,,,,,,,,,,,,ishita,001,2024-10-16_15h20.56.519,Motor Sequence,2024.2.2,60.08900383515513,2024-10-16 15h21.06.325936 +0530,
50,c,122,2,30,c,1,0.31589130000793375,None,,,,,30,2,122,2,,,,,303.8788421000063,,303.8635527000006,303.8788421000063,304.87880089999817,304.87880089999817,304.87880089999817,304.87880089999817,304.87880089999817,305.8783909000049,305.8783909000049,306.19607449999603,c,1,0.31589130000793375,None,,,,,,,,,,,,,,,ishita,001,2024-10-16_15h20.56.519,Motor Sequence,2024.2.2,60.08900383515513,2024-10-16 15h21.06.325936 +0530,
-150,z,123,3,30,z,1,0.25366550000035204,None,,,,,30,3,123,3,,,,,306.21144630000344,,306.19640850000724,306.21144630000344,307.2105605999968,307.2105605999968,307.2105605999968,307.2105605999968,307.2105605999968,308.2104565000045,308.2104565000045,308.4778323000064,z,1,0.25366550000035204,None,,,,,,,,,,,,,,,ishita,001,2024-10-16_15h20.56.519,Motor Sequence,2024.2.2,60.08900383515513,2024-10-16 15h21.06.325936 +0530,
-50,x,124,0,31,x,1,0.2112669000052847,None,,,,,31,0,124,0,,,,,308.4935125000047,,308.47812280000653,308.4935125000047,309.49385050000274,309.49385050000274,309.49385050000274,309.49385050000274,309.49385050000274,310.48627570000826,310.48627570000826,310.70322779999697,x,1,0.2112669000052847,None,,,,,,,,,,,,,,,ishita,001,2024-10-16_15h20.56.519,Motor Sequence,2024.2.2,60.08900383515513,2024-10-16 15h21.06.325936 +0530,
150,v,125,1,31,v,1,0.29275399999460205,None,,,,,31,1,125,1,,,,,310.7210993000044,,310.70351390000724,310.7210993000044,311.7038668000023,311.7038668000023,311.7038668000023,311.7038668000023,311.7187394000066,312.71848670000327,312.71848670000327,313.01909040000464,v,1,0.29275399999460205,None,,,,,,,,,,,,,,,ishita,001,2024-10-16_15h20.56.519,Motor Sequence,2024.2.2,60.08900383515513,2024-10-16 15h21.06.325936 +0530,
50,c,126,2,31,c,1,0.2643792999879224,None,,,,,31,2,126,2,,,,,313.03659889999835,,313.01938769999833,313.03659889999835,314.01976360000845,314.01976360000845,314.01976360000845,314.01976360000845,314.03486699999485,315.0342196999991,315.0342196999991,315.30137990000367,c,1,0.2643792999879224,None,,,,,,,,,,,,,,,ishita,001,2024-10-16_15h20.56.519,Motor Sequence,2024.2.2,60.08900383515513,2024-10-16 15h21.06.325936 +0530,
-150,z,127,3,31,z,1,0.04945350000343751,None,,,,,31,3,127,3,,,,,315.31902809999883,,315.30167139999685,315.31902809999883,316.30227749999904,316.30227749999904,316.30227749999904,316.30227749999904,316.3178295999969,317.31659400000353,317.31659400000353,317.367771300007,z,1,0.04945350000343751,None,,,,,,,,,,,,,,,ishita,001,2024-10-16_15h20.56.519,Motor Sequence,2024.2.2,60.08900383515513,2024-10-16 15h21.06.325936 +0530,
-50,x,128,0,32,x,1,0.23511349999171216,None,,,,,32,0,128,0,,,,,317.38495890000195,,317.36809560000256,317.38495890000195,318.3690835000016,318.3690835000016,318.3690835000016,318.3690835000016,318.3831341000041,319.3827781,319.3827781,319.63305010000477,x,1,0.23511349999171216,None,,,,,,,,,,,,,,,ishita,001,2024-10-16_15h20.56.519,Motor Sequence,2024.2.2,60.08900383515513,2024-10-16 15h21.06.325936 +0530,
150,v,129,1,32,v,1,0.14054779999423772,None,,,,,32,1,129,1,,,,,319.6504408000037,,319.6333612000017,319.6504408000037,320.63354999999865,320.63354999999865,320.63354999999865,320.63354999999865,320.6480989999982,321.64784299999883,321.64784299999883,321.7990955999994,v,1,0.14054779999423772,None,,,,,,,,,,,,,,,ishita,001,2024-10-16_15h20.56.519,Motor Sequence,2024.2.2,60.08900383515513,2024-10-16 15h21.06.325936 +0530,
50,c,130,2,32,c,1,0.3209919000073569,None,,,,,32,2,130,2,,,,,321.81629250000697,,321.79952110000886,321.81629250000697,322.7991645000002,322.7991645000002,322.7991645000002,322.7991645000002,322.81423849999555,323.8134424000018,323.8134424000018,324.1475094000052,c,1,0.3209919000073569,None,,,,,,,,,,,,,,,ishita,001,2024-10-16_15h20.56.519,Motor Sequence,2024.2.2,60.08900383515513,2024-10-16 15h21.06.325936 +0530,
-150,z,131,3,32,z,1,0.2210707999911392,None,,,,,32,3,131,3,,,,,324.1650873000035,,324.14780930000416,324.1650873000035,325.1479399000091,325.1479399000091,325.1479399000091,325.1479399000091,325.1628264000028,326.1626827,326.1626827,326.396748500003,z,1,0.2210707999911392,None,,,,,,,,,,,,,,,ishita,001,2024-10-16_15h20.56.519,Motor Sequence,2024.2.2,60.08900383515513,2024-10-16 15h21.06.325936 +0530,
-50,x,132,0,33,x,1,0.23266740000690334,None,,,,,33,0,132,0,,,,,326.4141207000066,,326.39706699999806,326.4141207000066,327.3971287000022,327.3971287000022,327.3971287000022,327.3971287000022,327.4120918999979,328.41146760000265,328.41146760000265,328.6458519000007,x,1,0.23266740000690334,None,,,,,,,,,,,,,,,ishita,001,2024-10-16_15h20.56.519,Motor Sequence,2024.2.2,60.08900383515513,2024-10-16 15h21.06.325936 +0530,
150,v,133,1,33,v,1,0.28219800000078976,None,,,,,33,1,133,1,,,,,328.66327509999974,,328.6461419999978,328.66327509999974,329.6461765999993,329.6461765999993,329.6461765999993,329.6461765999993,329.660793300005,330.6616440000071,330.6616440000071,330.9453211000073,v,1,0.28219800000078976,None,,,,,,,,,,,,,,,ishita,001,2024-10-16_15h20.56.519,Motor Sequence,2024.2.2,60.08900383515513,2024-10-16 15h21.06.325936 +0530,
50,c,134,2,33,c,1,0.5220389000023715,None,,,,,33,2,134,2,,,,,330.9624952000013,,330.94563980000385,330.9624952000013,331.94606919999933,331.94606919999933,331.94606919999933,331.94606919999933,331.96006159999524,332.96000540000387,332.96000540000387,333.493776400006,c,1,0.5220389000023715,None,,,,,,,,,,,,,,,ishita,001,2024-10-16_15h20.56.519,Motor Sequence,2024.2.2,60.08900383515513,2024-10-16 15h21.06.325936 +0530,
-150,z,135,3,33,z,1,0.4165229000063846,None,,,,,33,3,135,3,,,,,333.51125270000193,,333.494105500009,333.51125270000193,334.49416790000396,334.49416790000396,334.49416790000396,334.49416790000396,334.50915080000414,335.50853310000093,335.50853310000093,335.92680280000786,z,1,0.4165229000063846,None,,,,,,,,,,,,,,,ishita,001,2024-10-16_15h20.56.519,Motor Sequence,2024.2.2,60.08900383515513,2024-10-16 15h21.06.325936 +0530,
-50,x,136,0,34,x,1,0.2781944000016665,None,,,,,34,0,136,0,,,,,335.94352499999513,,335.9271582000074,335.94352499999513,336.9264173999982,336.9264173999982,336.9264173999982,336.9264173999982,336.9413299000007,337.9409728000028,337.9409728000028,338.22596039999917,x,1,0.2781944000016665,None,,,,,,,,,,,,,,,ishita,001,2024-10-16_15h20.56.519,Motor Sequence,2024.2.2,60.08900383515513,2024-10-16 15h21.06.325936 +0530,
150,v,137,1,34,v,1,0.3226855999964755,None,,,,,34,1,137,1,,,,,338.2425605000026,,338.2262684000016,338.2425605000026,339.2252084000065,339.2252084000065,339.2252084000065,339.2252084000065,339.24015460000373,340.2397009999986,340.2397009999986,340.57365059999574,v,1,0.3226855999964755,None,,,,,,,,,,,,,,,ishita,001,2024-10-16_15h20.56.519,Motor Sequence,2024.2.2,60.08900383515513,2024-10-16 15h21.06.325936 +0530,
50,c,138,2,34,c,1,0.7329908000101568,None,,,,,34,2,138,2,,,,,340.5913271000027,,340.57395720000204,340.5913271000027,341.57431730000826,341.57431730000826,341.57431730000826,341.57431730000826,341.58916840000893,342.572757300004,342.572757300004,343.32246330000635,c,1,0.7329908000101568,None,,,,,,,,,,,,,,,ishita,001,2024-10-16_15h20.56.519,Motor Sequence,2024.2.2,60.08900383515513,2024-10-16 15h21.06.325936 +0530,
-150,z,139,3,34,z,1,0.855919299996458,None,,,,,34,3,139,3,,,,,343.3402764000057,,343.3227571000025,343.3402764000057,344.32325090000813,344.32325090000813,344.32325090000813,344.32325090000813,344.3379475999973,345.3381858000066,345.3381858000066,346.2052454000077,z,1,0.855919299996458,None,,,,,,,,,,,,,,,ishita,001,2024-10-16_15h20.56.519,Motor Sequence,2024.2.2,60.08900383515513,2024-10-16 15h21.06.325936 +0530,
-50,x,140,0,35,x,1,0.9089111000066623,None,,,,,35,0,140,0,,,,,346.2225182999973,,346.2055765999976,346.2225182999973,347.20575619999727,347.20575619999727,347.20575619999727,347.20575619999727,347.22040049999487,348.2200146999967,348.2200146999967,349.1367476000014,x,1,0.9089111000066623,None,,,,,,,,,,,,,,,ishita,001,2024-10-16_15h20.56.519,Motor Sequence,2024.2.2,60.08900383515513,2024-10-16 15h21.06.325936 +0530,
150,v,141,1,35,v,1,0.28254610000294633,None,,,,,35,1,141,1,,,,,349.15442790000816,,349.13710370000626,349.15442790000816,350.13726410000527,350.13726410000527,350.13726410000527,350.13726410000527,350.15197030000854,351.1516968000069,351.1516968000069,351.4358327000082,v,1,0.28254610000294633,None,,,,,,,,,,,,,,,ishita,001,2024-10-16_15h20.56.519,Motor Sequence,2024.2.2,60.08900383515513,2024-10-16 15h21.06.325936 +0530,
50,c,142,2,35,c,1,0.5772591999993892,None,,,,,35,2,142,2,,,,,351.45371210000303,,351.43612369999755,351.45371210000303,352.43620589999773,352.43620589999773,352.43620589999773,352.43620589999773,352.45110400000704,353.45073359999515,353.45073359999515,354.0346789000032,c,1,0.5772591999993892,None,,,,,,,,,,,,,,,ishita,001,2024-10-16_15h20.56.519,Motor Sequence,2024.2.2,60.08900383515513,2024-10-16 15h21.06.325936 +0530,
-150,z,143,3,35,z,1,1.881436499999836,None,,,,,35,3,143,3,,,,,354.05204599999706,,354.03499480000755,354.05204599999706,355.03494460000366,355.03494460000366,355.03494460000366,355.03494460000366,355.04992020000645,356.049642900005,356.049642900005,357.9333872999996,z,1,1.881436499999836,None,,,,,,,,,,,,,,,ishita,001,2024-10-16_15h20.56.519,Motor Sequence,2024.2.2,60.08900383515513,2024-10-16 15h21.06.325936 +0530,
-50,x,144,0,36,x,1,0.8246784000075422,None,,,,,36,0,144,0,,,,,357.9506098999991,,357.9337197999994,357.9506098999991,358.93340239999816,358.93340239999816,358.93340239999816,358.93340239999816,358.9482915999979,359.94811880000634,359.94811880000634,360.78194139999687,x,1,0.8246784000075422,None,,,,,,,,,,,,,,,ishita,001,2024-10-16_15h20.56.519,Motor Sequence,2024.2.2,60.08900383515513,2024-10-16 15h21.06.325936 +0530,
150,v,145,1,36,v,1,0.6778507999988506,None,,,,,36,1,145,1,,,,,360.79969519999577,,360.7823198999977,360.79969519999577,361.78199889999814,361.78199889999814,361.78199889999814,361.78199889999814,361.81373890000395,362.7967769999959,362.7967769999959,363.4805481000076,v,1,0.6778507999988506,None,,,,,,,,,,,,,,,ishita,001,2024-10-16_15h20.56.519,Motor Sequence,2024.2.2,60.08900383515513,2024-10-16 15h21.06.325936 +0530,
50,c,146,2,36,c,1,0.0018303999968338758,None,,,,,36,2,146,2,,,,,363.49831619999895,,363.4808895000024,363.49831619999895,364.48089340000297,364.48089340000297,364.48089340000297,364.48089340000297,364.49588460000814,365.4953142000013,365.4953142000013,365.51292409999587,c,1,0.0018303999968338758,None,,,,,,,,,,,,,,,ishita,001,2024-10-16_15h20.56.519,Motor Sequence,2024.2.2,60.08900383515513,2024-10-16 15h21.06.325936 +0530,
-150,z,147,3,36,z,1,0.2394782000046689,None,,,,,36,3,147,3,,,,,365.5306399999972,,365.5132297000091,365.5306399999972,366.5136700000003,366.5136700000003,366.5136700000003,366.5136700000003,366.52820610000344,367.52802209999936,367.52802209999936,367.77858240000205,z,1,0.2394782000046689,None,,,,,,,,,,,,,,,ishita,001,2024-10-16_15h20.56.519,Motor Sequence,2024.2.2,60.08900383515513,2024-10-16 15h21.06.325936 +0530,
-50,x,148,0,37,x,1,0.2736609999992652,None,,,,,37,0,148,0,,,,,367.79624320000585,,367.77887660000124,367.79624320000585,368.7792380000028,368.7792380000028,368.7792380000028,368.7792380000028,368.7939436000015,369.79345759999705,369.79345759999705,370.077941800002,x,1,0.2736609999992652,None,,,,,,,,,,,,,,,ishita,001,2024-10-16_15h20.56.519,Motor Sequence,2024.2.2,60.08900383515513,2024-10-16 15h21.06.325936 +0530,
150,v,149,1,37,v,1,0.21404370000527706,None,,,,,37,1,149,1,,,,,370.09513190000143,,370.0782729000057,370.09513190000143,371.0780647000065,371.0780647000065,371.0780647000065,371.0780647000065,371.09294170000067,372.08264219999546,372.08264219999546,372.29980680000153,v,1,0.21404370000527706,None,,,,,,,,,,,,,,,ishita,001,2024-10-16_15h20.56.519,Motor Sequence,2024.2.2,60.08900383515513,2024-10-16 15h21.06.325936 +0530,
50,c,150,2,37,c,1,0.2970684000028996,None,,,,,37,2,150,2,,,,,372.31560159999935,,372.3001346000092,372.31560159999935,373.29884709999897,373.29884709999897,373.29884709999897,373.29884709999897,373.31515959999524,374.3152520000003,374.3152520000003,374.61544819999835,c,1,0.2970684000028996,None,,,,,,,,,,,,,,,ishita,001,2024-10-16_15h20.56.519,Motor Sequence,2024.2.2,60.08900383515513,2024-10-16 15h21.06.325936 +0530,
-150,z,151,3,37,z,1,1.1094698999950197,None,,,,,37,3,151,3,,,,,374.631544799995,,374.61574259999907,374.631544799995,375.6148302000074,375.6148302000074,375.6148302000074,375.6148302000074,375.63112810000894,376.6304916000081,376.6304916000081,377.7482585999969,z,1,1.1094698999950197,None,,,,,,,,,,,,,,,ishita,001,2024-10-16_15h20.56.519,Motor Sequence,2024.2.2,60.08900383515513,2024-10-16 15h21.06.325936 +0530,
-50,x,152,0,38,x,1,0.26277719999779947,None,,,,,38,0,152,0,,,,,377.7639893000014,,377.74861480000254,377.7639893000014,378.76362399999925,378.76362399999925,378.76362399999925,378.76362399999925,378.76362399999925,379.7624538000091,379.7624538000091,380.0303714000038,x,1,0.26277719999779947,None,,,,,,,,,,,,,,,ishita,001,2024-10-16_15h20.56.519,Motor Sequence,2024.2.2,60.08900383515513,2024-10-16 15h21.06.325936 +0530,
150,v,153,1,38,v,1,0.28426020000188146,None,,,,,38,1,153,1,,,,,380.04571200000646,,380.030660000004,380.04571200000646,381.0453802999982,381.0453802999982,381.0453802999982,381.0453802999982,381.0453802999982,382.04493509999884,382.04493509999884,382.34563740000885,v,1,0.28426020000188146,None,,,,,,,,,,,,,,,ishita,001,2024-10-16_15h20.56.519,Motor Sequence,2024.2.2,60.08900383515513,2024-10-16 15h21.06.325936 +0530,
50,c,154,2,38,c,1,0.12264620000496507,None,,,,,38,2,154,2,,,,,382.3613476000028,,382.3459203000093,382.3613476000028,383.3617402000091,383.3617402000091,383.3617402000091,383.3617402000091,383.3617402000091,384.36070820000896,384.36070820000896,384.4949043000088,c,1,0.12264620000496507,None,,,,,,,,,,,,,,,ishita,001,2024-10-16_15h20.56.519,Motor Sequence,2024.2.2,60.08900383515513,2024-10-16 15h21.06.325936 +0530,
-150,z,155,3,38,z,1,0.26714959999662824,None,,,,,38,3,155,3,,,,,384.5105588000006,,384.4953267000092,384.5105588000006,385.5099784000049,385.5099784000049,385.5099784000049,385.5099784000049,385.5099784000049,386.5097956999962,386.5097956999962,386.7938884000032,z,1,0.26714959999662824,None,,,,,,,,,,,,,,,ishita,001,2024-10-16_15h20.56.519,Motor Sequence,2024.2.2,60.08900383515513,2024-10-16 15h21.06.325936 +0530,
-50,x,156,0,39,x,1,0.20479459999478422,None,,,,,39,0,156,0,,,,,386.8095794999972,,386.79417010000907,386.8095794999972,387.8089725000027,387.8089725000027,387.8089725000027,387.8089725000027,387.8089725000027,388.8087289999967,388.8087289999967,389.026528900009,x,1,0.20479459999478422,None,,,,,,,,,,,,,,,ishita,001,2024-10-16_15h20.56.519,Motor Sequence,2024.2.2,60.08900383515513,2024-10-16 15h21.06.325936 +0530,
150,v,157,1,39,v,1,0.22083619999466464,None,,,,,39,1,157,1,,,,,389.0420204999973,,389.0268775000004,389.0420204999973,390.0412573000067,390.0412573000067,390.0412573000067,390.0412573000067,390.0412573000067,391.0410774000047,391.0410774000047,391.27495510000153,v,1,0.22083619999466464,None,,,,,,,,,,,,,,,ishita,001,2024-10-16_15h20.56.519,Motor Sequence,2024.2.2,60.08900383515513,2024-10-16 15h21.06.325936 +0530,
50,c,158,2,39,c,1,0.2757982000039192,None,,,,,39,2,158,2,,,,,391.29132930000196,,391.2752754999965,391.29132930000196,392.29037850000896,392.29037850000896,392.29037850000896,392.29037850000896,392.30746250000084,393.2901201000059,393.2901201000059,393.574288799995,c,1,0.2757982000039192,None,,,,,,,,,,,,,,,ishita,001,2024-10-16_15h20.56.519,Motor Sequence,2024.2.2,60.08900383515513,2024-10-16 15h21.06.325936 +0530,
-150,z,159,3,39,z,1,0.24686850000580307,None,,,,,39,3,159,3,,,,,393.5899051000015,,393.5746119999967,393.5899051000015,394.58974619999935,394.58974619999935,394.58974619999935,394.58974619999935,394.58974619999935,395.5891189999966,395.5891189999966,395.84052240000165,z,1,0.24686850000580307,None,,,,,,,,,,,,,,,ishita,001,2024-10-16_15h20.56.519,Motor Sequence,2024.2.2,60.08900383515513,2024-10-16 15h21.06.325936 +0530,
-50,x,160,0,40,x,1,0.21512690000236034,None,,,,,40,0,160,0,,,,,395.8553916999954,,395.8408349000092,395.8553916999954,396.8551196000044,396.8551196000044,396.8551196000044,396.8551196000044,396.8551196000044,397.85484060000454,397.85484060000454,398.0722495000082,x,1,0.21512690000236034,None,,,,,,,,,,,,,,,ishita,001,2024-10-16_15h20.56.519,Motor Sequence,2024.2.2,60.08900383515513,2024-10-16 15h21.06.325936 +0530,
150,v,161,1,40,v,1,0.2810204999987036,None,,,,,40,1,161,1,,,,,398.0879663000087,,398.07253910000145,398.0879663000087,399.0876825000014,399.0876825000014,399.0876825000014,399.0876825000014,399.0876825000014,400.08723000000464,400.08723000000464,400.3712996999966,v,1,0.2810204999987036,None,,,,,,,,,,,,,,,ishita,001,2024-10-16_15h20.56.519,Motor Sequence,2024.2.2,60.08900383515513,2024-10-16 15h21.06.325936 +0530,
50,c,162,2,40,c,1,0.32758840000315104,None,,,,,40,2,162,2,,,,,400.38674689999607,,400.37160420000146,400.38674689999607,401.38697720000346,401.38697720000346,401.38697720000346,401.38697720000346,401.38697720000346,402.3862870000012,402.3862870000012,402.72041690000333,c,1,0.32758840000315104,None,,,,,,,,,,,,,,,ishita,001,2024-10-16_15h20.56.519,Motor Sequence,2024.2.2,60.08900383515513,2024-10-16 15h21.06.325936 +0530,
-150,z,163,3,40,z,1,0.2786461999930907,None,,,,,40,3,163,3,,,,,402.73610510000435,,402.72070740000345,402.73610510000435,403.7355590000079,403.7355590000079,403.7355590000079,403.7355590000079,403.7355590000079,404.735422800004,404.735422800004,405.0192351000005,z,1,0.2786461999930907,None,,,,,,,,,,,,,,,ishita,001,2024-10-16_15h20.56.519,Motor Sequence,2024.2.2,60.08900383515513,2024-10-16 15h21.06.325936 +0530,
-50,x,164,0,41,x,1,0.25423410000803415,None,,,,,41,0,164,0,,,,,405.0350419000024,,405.01952050000546,405.0350419000024,406.0181906000071,406.0181906000071,406.0181906000071,406.0181906000071,406.03446340000664,407.0339163000026,407.0339163000026,407.30130610000924,x,1,0.25423410000803415,None,,,,,,,,,,,,,,,ishita,001,2024-10-16_15h20.56.519,Motor Sequence,2024.2.2,60.08900383515513,2024-10-16 15h21.06.325936 +0530,
150,v,165,1,41,v,1,0.18371399999887217,None,,,,,41,1,165,1,,,,,407.3174110999971,,407.30159780000395,407.3174110999971,408.31680400000187,408.31680400000187,408.31680400000187,408.31680400000187,408.31680400000187,409.3164565000043,409.3164565000043,409.5017910000024,v,1,0.18371399999887217,None,,,,,,,,,,,,,,,ishita,001,2024-10-16_15h20.56.519,Motor Sequence,2024.2.2,60.08900383515513,2024-10-16 15h21.06.325936 +0530,
50,c,166,2,41,c,1,0.29949230000784155,None,,,,,41,2,166,2,,,,,409.51648489999934,,409.5021037999977,409.51648489999934,410.5157244000002,410.5157244000002,410.5157244000002,410.5157244000002,410.5157244000002,411.51592030000756,411.51592030000756,411.816857400001,c,1,0.29949230000784155,None,,,,,,,,,,,,,,,ishita,001,2024-10-16_15h20.56.519,Motor Sequence,2024.2.2,60.08900383515513,2024-10-16 15h21.06.325936 +0530,
-150,z,167,3,41,z,1,0.26049220000277273,None,,,,,41,3,167,3,,,,,411.83186570000544,,411.817149399998,411.83186570000544,412.8316066999978,412.8316066999978,412.8316066999978,412.8316066999978,412.8316066999978,413.8311800000083,413.8311800000083,414.09904169999936,z,1,0.26049220000277273,None,,,,,,,,,,,,,,,ishita,001,2024-10-16_15h20.56.519,Motor Sequence,2024.2.2,60.08900383515513,2024-10-16 15h21.06.325936 +0530,
-50,x,168,0,42,x,1,0.2742861000006087,None,,,,,42,0,168,0,,,,,414.11416880000615,,414.09934559999965,414.11416880000615,415.11408420000225,415.11408420000225,415.11408420000225,415.11408420000225,415.11408420000225,416.1135256999987,416.1135256999987,416.39793170000485,x,1,0.2742861000006087,None,,,,,,,,,,,,,,,ishita,001,2024-10-16_15h20.56.519,Motor Sequence,2024.2.2,60.08900383515513,2024-10-16 15h21.06.325936 +0530,
150,v,169,1,42,v,1,0.3518888000107836,None,,,,,42,1,169,1,,,,,416.4135099999985,,416.39827449999575,416.4135099999985,417.413020699998,417.413020699998,417.413020699998,417.413020699998,417.413020699998,418.4128745000053,418.4128745000053,418.7804995000042,v,1,0.3518888000107836,None,,,,,,,,,,,,,,,ishita,001,2024-10-16_15h20.56.519,Motor Sequence,2024.2.2,60.08900383515513,2024-10-16 15h21.06.325936 +0530,
50,c,170,2,42,c,1,0.5435926000063773,None,,,,,42,2,170,2,,,,,418.79594440000074,,418.78087109999615,418.79594440000074,419.7953137000004,419.7953137000004,419.7953137000004,419.7953137000004,419.7953137000004,420.7946323000069,420.7946323000069,421.34555779999937,c,1,0.5435926000063773,None,,,,,,,,,,,,,,,ishita,001,2024-10-16_15h20.56.519,Motor Sequence,2024.2.2,60.08900383515513,2024-10-16 15h21.06.325936 +0530,
-150,z,171,3,42,z,1,0.41995650000171736,None,,,,,42,3,171,3,,,,,421.36132749999524,,421.34585450000304,421.36132749999524,422.36075570000685,422.36075570000685,422.36075570000685,422.36075570000685,422.36075570000685,423.36081670000567,423.36081670000567,423.79467800000566,z,1,0.41995650000171736,None,,,,,,,,,,,,,,,ishita,001,2024-10-16_15h20.56.519,Motor Sequence,2024.2.2,60.08900383515513,2024-10-16 15h21.06.325936 +0530,
-50,x,172,0,43,x,1,0.3929031000006944,None,,,,,43,0,172,0,,,,,423.81064270000206,,423.7950164000067,423.81064270000206,424.8101150000002,424.8101150000002,424.8101150000002,424.8101150000002,424.8101150000002,425.8093857000058,425.8093857000058,426.21088820000296,x,1,0.3929031000006944,None,,,,,,,,,,,,,,,ishita,001,2024-10-16_15h20.56.519,Motor Sequence,2024.2.2,60.08900383515513,2024-10-16 15h21.06.325936 +0530,
150,v,173,1,43,v,1,0.2308379000023706,None,,,,,43,1,173,1,,,,,426.2258823000011,,426.21120430000883,426.2258823000011,427.22572899999795,427.22572899999795,427.22572899999795,427.22572899999795,427.22572899999795,428.2250797000015,428.2250797000015,428.4588619999995,v,1,0.2308379000023706,None,,,,,,,,,,,,,,,ishita,001,2024-10-16_15h20.56.519,Motor Sequence,2024.2.2,60.08900383515513,2024-10-16 15h21.06.325936 +0530,
50,c,174,2,43,c,1,0.19629379999241792,None,,,,,43,2,174,2,,,,,428.4749182000087,,428.45918810000876,428.4749182000087,429.46606210000755,429.46606210000755,429.46606210000755,429.46606210000755,429.4832044000068,430.465460899999,430.465460899999,430.66689320000296,c,1,0.19629379999241792,None,,,,,,,,,,,,,,,ishita,001,2024-10-16_15h20.56.519,Motor Sequence,2024.2.2,60.08900383515513,2024-10-16 15h21.06.325936 +0530,
-150,z,175,3,43,z,1,0.3093570999917574,None,,,,,43,3,175,3,,,,,430.68216110000503,,430.66721719999623,430.68216110000503,431.68180069999653,431.68180069999653,431.68180069999653,431.68180069999653,431.68180069999653,432.6810991000093,432.6810991000093,432.9995798000018,z,1,0.3093570999917574,None,,,,,,,,,,,,,,,ishita,001,2024-10-16_15h20.56.519,Motor Sequence,2024.2.2,60.08900383515513,2024-10-16 15h21.06.325936 +0530,
-50,x,176,0,44,x,1,0.2687562000064645,None,,,,,44,0,176,0,,,,,433.014997899998,,432.9998903999949,433.014997899998,434.0145232000068,434.0145232000068,434.0145232000068,434.0145232000068,434.0145232000068,435.01388620000216,435.01388620000216,435.2982192000054,x,1,0.2687562000064645,None,,,,,,,,,,,,,,,ishita,001,2024-10-16_15h20.56.519,Motor Sequence,2024.2.2,60.08900383515513,2024-10-16 15h21.06.325936 +0530,
150,v,177,1,44,v,1,0.021708600004785694,None,,,,,44,1,177,1,,,,,435.31332040000416,,435.2985519000067,435.31332040000416,436.31337899999926,436.31337899999926,436.31337899999926,436.31337899999926,436.31337899999926,437.3130506000016,437.3130506000016,437.3469034000009,v,1,0.021708600004785694,None,,,,,,,,,,,,,,,ishita,001,2024-10-16_15h20.56.519,Motor Sequence,2024.2.2,60.08900383515513,2024-10-16 15h21.06.325936 +0530,
50,c,178,2,44,c,1,0.029417400000966154,None,,,,,44,2,178,2,,,,,437.3629637999984,,437.34718040000007,437.3629637999984,438.3626988000033,438.3626988000033,438.3626988000033,438.3626988000033,438.3626988000033,439.361536299999,439.361536299999,439.39589949999936,c,1,0.029417400000966154,None,,,,,,,,,,,,,,,ishita,001,2024-10-16_15h20.56.519,Motor Sequence,2024.2.2,60.08900383515513,2024-10-16 15h21.06.325936 +0530,
-150,z,179,3,44,z,1,None,None,,,,,44,3,179,3,,,,,439.4118524000078,,439.3962496000022,439.4118524000078,440.3950465000089,440.3950465000089,440.3950465000089,440.3950465000089,440.41168600000674,441.4106532000005,441.4106532000005,441.54514260000724,z,1,None,None,,,,,,,,,,,,,,,ishita,001,2024-10-16_15h20.56.519,Motor Sequence,2024.2.2,60.08900383515513,2024-10-16 15h21.06.325936 +0530,
-50,x,180,0,45,x,1,0.03386970001156442,None,,,,,45,0,180,0,,,,,441.5606284999958,,441.5454587999993,441.5606284999958,442.56020700000226,442.56020700000226,442.56020700000226,442.56020700000226,442.56020700000226,443.56004779999785,443.56004779999785,443.59551620000275,x,1,0.03386970001156442,None,,,,,,,,,,,,,,,ishita,001,2024-10-16_15h20.56.519,Motor Sequence,2024.2.2,60.08900383515513,2024-10-16 15h21.06.325936 +0530,
150,v,181,1,45,v,1,0.056943799994769506,None,,,,,45,1,181,1,,,,,443.6097052999976,,443.5958268999966,443.6097052999976,444.60936159999983,444.60936159999983,444.60936159999983,444.60936159999983,444.60936159999983,445.609062500007,445.609062500007,445.67680810000456,v,1,0.056943799994769506,None,,,,,,,,,,,,,,,ishita,001,2024-10-16_15h20.56.519,Motor Sequence,2024.2.2,60.08900383515513,2024-10-16 15h21.06.325936 +0530,
50,c,182,2,45,c,1,0.49451820000831503,None,,,,,45,2,182,2,,,,,445.69238239999686,,445.67715529999987,445.69238239999686,446.692249300002,446.692249300002,446.692249300002,446.692249300002,446.692249300002,447.6920520999993,447.6920520999993,448.1919101999956,c,1,0.49451820000831503,None,,,,,,,,,,,,,,,ishita,001,2024-10-16_15h20.56.519,Motor Sequence,2024.2.2,60.08900383515513,2024-10-16 15h21.06.325936 +0530,
-150,z,183,3,45,z,1,0.44207489999826066,None,,,,,45,3,183,3,,,,,448.20777920000546,,448.19220309999946,448.20777920000546,449.20756249999977,449.20756249999977,449.20756249999977,449.20756249999977,449.20756249999977,450.20733550000296,450.20733550000296,450.65876049999497,z,1,0.44207489999826066,None,,,,,,,,,,,,,,,ishita,001,2024-10-16_15h20.56.519,Motor Sequence,2024.2.2,60.08900383515513,2024-10-16 15h21.06.325936 +0530,
-50,x,184,0,46,x,1,0.3330731000023661,None,,,,,46,0,184,0,,,,,450.67332570000144,,450.6593356000085,450.67332570000144,451.6737775000074,451.6737775000074,451.6737775000074,451.6737775000074,451.6737775000074,452.6734550999972,452.6734550999972,453.0080859000009,x,1,0.3330731000023661,None,,,,,,,,,,,,,,,ishita,001,2024-10-16_15h20.56.519,Motor Sequence,2024.2.2,60.08900383515513,2024-10-16 15h21.06.325936 +0530,
150,v,185,1,46,v,1,0.25260129998787306,None,,,,,46,1,185,1,,,,,453.0228733999975,,453.00839319999795,453.0228733999975,454.0224001000024,454.0224001000024,454.0224001000024,454.0224001000024,454.0224001000024,455.0217195000005,455.0217195000005,455.28887420000683,v,1,0.25260129998787306,None,,,,,,,,,,,,,,,ishita,001,2024-10-16_15h20.56.519,Motor Sequence,2024.2.2,60.08900383515513,2024-10-16 15h21.06.325936 +0530,
50,c,186,2,46,c,1,0.20145369999227114,None,,,,,46,2,186,2,,,,,455.30479589999595,,455.2892242000089,455.30479589999595,456.30463359999703,456.30463359999703,456.30463359999703,456.30463359999703,456.30463359999703,457.3039745999995,457.3039745999995,457.52146119999816,c,1,0.20145369999227114,None,,,,,,,,,,,,,,,ishita,001,2024-10-16_15h20.56.519,Motor Sequence,2024.2.2,60.08900383515513,2024-10-16 15h21.06.325936 +0530,
-150,z,187,3,46,z,1,0.45973719999892637,None,,,,,46,3,187,3,,,,,457.537215999997,,457.52175110000826,457.537215999997,458.5369759000023,458.5369759000023,458.5369759000023,458.5369759000023,458.5369759000023,459.5368690000032,459.5368690000032,460.0040724999999,z,1,0.45973719999892637,None,,,,,,,,,,,,,,,ishita,001,2024-10-16_15h20.56.519,Motor Sequence,2024.2.2,60.08900383515513,2024-10-16 15h21.06.325936 +0530,
-50,x,188,0,47,x,1,0.2681931999977678,None,,,,,47,0,188,0,,,,,460.01959050000005,,460.00440309999976,460.01959050000005,461.0197179999959,461.0197179999959,461.0197179999959,461.0197179999959,461.0197179999959,462.0189875000069,462.0189875000069,462.30283080000663,x,1,0.2681931999977678,None,,,,,,,,,,,,,,,ishita,001,2024-10-16_15h20.56.519,Motor Sequence,2024.2.2,60.08900383515513,2024-10-16 15h21.06.325936 +0530,
150,v,189,1,47,v,1,0.30594020000717137,None,,,,,47,1,189,1,,,,,462.31827879999764,,462.3031229000044,462.31827879999764,463.31900309999764,463.31900309999764,463.31900309999764,463.31900309999764,463.31900309999764,464.31775560000096,464.31775560000096,464.6349118000071,v,1,0.30594020000717137,None,,,,,,,,,,,,,,,ishita,001,2024-10-16_15h20.56.519,Motor Sequence,2024.2.2,60.08900383515513,2024-10-16 15h21.06.325936 +0530,
50,c,190,2,47,c,1,0.34367900001234375,None,,,,,47,2,190,2,,,,,464.65145669999765,,464.6352676999959,464.65145669999765,465.6341425999999,465.6341425999999,465.6341425999999,465.6341425999999,465.650367299997,466.650012099999,466.650012099999,467.0018240000063,c,1,0.34367900001234375,None,,,,,,,,,,,,,,,ishita,001,2024-10-16_15h20.56.519,Motor Sequence,2024.2.2,60.08900383515513,2024-10-16 15h21.06.325936 +0530,
-150,z,191,3,47,z,1,0.19796499999938533,None,,,,,47,3,191,3,,,,,467.01652319999994,,467.0021343999979,467.01652319999994,468.01587859999563,468.01587859999563,468.01587859999563,468.01587859999563,468.01587859999563,469.01590450000367,469.01590450000367,469.21676090000255,z,1,0.19796499999938533,None,,,,,,,,,,,,,,,ishita,001,2024-10-16_15h20.56.519,Motor Sequence,2024.2.2,60.08900383515513,2024-10-16 15h21.06.325936 +0530,
-50,x,192,0,48,x,1,0.31728170000133105,None,,,,,48,0,192,0,,,,,469.2322772000043,,469.2171134000091,469.2322772000043,470.23212709999643,470.23212709999643,470.23212709999643,470.23212709999643,470.23212709999643,471.23157800000627,471.23157800000627,471.55091200000606,x,1,0.31728170000133105,None,,,,,,,,,,,,,,,ishita,001,2024-10-16_15h20.56.519,Motor Sequence,2024.2.2,60.08900383515513,2024-10-16 15h21.06.325936 +0530,
150,v,193,1,48,v,1,0.4298306999990018,None,,,,,48,1,193,1,,,,,471.56470410000475,,471.5512527999963,471.56470410000475,472.5646579000022,472.5646579000022,472.5646579000022,472.5646579000022,472.5646579000022,473.5642030000017,473.5642030000017,473.99786410000524,v,1,0.4298306999990018,None,,,,,,,,,,,,,,,ishita,001,2024-10-16_15h20.56.519,Motor Sequence,2024.2.2,60.08900383515513,2024-10-16 15h21.06.325936 +0530,
50,c,194,2,48,c,1,0.18924749999132473,None,,,,,48,2,194,2,,,,,474.01328709999507,,473.9981689999986,474.01328709999507,475.013048000008,475.013048000008,475.013048000008,475.013048000008,475.013048000008,476.0128507000045,476.0128507000045,476.2133463000064,c,1,0.18924749999132473,None,,,,,,,,,,,,,,,ishita,001,2024-10-16_15h20.56.519,Motor Sequence,2024.2.2,60.08900383515513,2024-10-16 15h21.06.325936 +0530,
-150,z,195,3,48,z,1,0.27608179999515414,None,,,,,48,3,195,3,,,,,476.22956550000526,,476.2136824000045,476.22956550000526,477.228434699995,477.228434699995,477.228434699995,477.228434699995,477.228434699995,478.2286308000039,478.2286308000039,478.5130712999962,z,1,0.27608179999515414,None,,,,,,,,,,,,,,,ishita,001,2024-10-16_15h20.56.519,Motor Sequence,2024.2.2,60.08900383515513,2024-10-16 15h21.06.325936 +0530,
-50,x,196,0,49,x,1,0.26586200000019744,None,,,,,49,0,196,0,,,,,478.52819500000624,,478.51337980000244,478.52819500000624,479.5277208000043,479.5277208000043,479.5277208000043,479.5277208000043,479.5277208000043,480.52738880000834,480.52738880000834,480.7954671000043,x,1,0.26586200000019744,None,,,,,,,,,,,,,,,ishita,001,2024-10-16_15h20.56.519,Motor Sequence,2024.2.2,60.08900383515513,2024-10-16 15h21.06.325936 +0530,
150,v,197,1,49,v,1,0.2408718999940902,None,,,,,49,1,197,1,,,,,480.8107296000089,,480.79578200000105,480.8107296000089,481.81014090000826,481.81014090000826,481.81014090000826,481.81014090000826,481.81014090000826,482.81036630000744,482.81036630000744,483.0609644000069,v,1,0.2408718999940902,None,,,,,,,,,,,,,,,ishita,001,2024-10-16_15h20.56.519,Motor Sequence,2024.2.2,60.08900383515513,2024-10-16 15h21.06.325936 +0530,
50,c,198,2,49,c,1,0.24797989999933634,None,,,,,49,2,198,2,,,,,483.0762575999979,,483.0612693000003,483.0762575999979,484.07621199999994,484.07621199999994,484.07621199999994,484.07621199999994,484.07621199999994,485.0753429000033,485.0753429000033,485.3258863000083,c,1,0.24797989999933634,None,,,,,,,,,,,,,,,ishita,001,2024-10-16_15h20.56.519,Motor Sequence,2024.2.2,60.08900383515513,2024-10-16 15h21.06.325936 +0530,
-150,z,199,3,49,z,1,0.3647691000078339,None,,,,,49,3,199,3,,,,,485.34182750000036,,485.3261904999963,485.34182750000036,486.3413145000086,486.3413145000086,486.3413145000086,486.3413145000086,486.3413145000086,487.3246463999967,487.3246463999967,487.6918192000012,z,1,0.3647691000078339,None,,,,,,,,,,,,,,,ishita,001,2024-10-16_15h20.56.519,Motor Sequence,2024.2.2,60.08900383515513,2024-10-16 15h21.06.325936 +0530,
-50,x,200,0,50,x,1,0.15327399999659974,None,,,,,50,0,200,0,,,,,487.7075474000012,,487.69211519999953,487.7075474000012,488.70749179999984,488.70749179999984,488.70749179999984,488.70749179999984,488.70749179999984,489.7067427000002,489.7067427000002,489.87408760000835,x,1,0.15327399999659974,None,,,,,,,,,,,,,,,ishita,001,2024-10-16_15h20.56.519,Motor Sequence,2024.2.2,60.08900383515513,2024-10-16 15h21.06.325936 +0530,
150,v,201,1,50,v,1,0.3483115999988513,None,,,,,50,1,201,1,,,,,489.89002069999697,,489.8744546000089,489.89002069999697,490.8733987000014,490.8733987000014,490.8733987000014,490.8733987000014,490.889253500005,491.88927690000855,491.88927690000855,492.2403256999969,v,1,0.3483115999988513,None,,,,,,,,,,,,,,,ishita,001,2024-10-16_15h20.56.519,Motor Sequence,2024.2.2,60.08900383515513,2024-10-16 15h21.06.325936 +0530,
50,c,202,2,50,c,1,0.21873609999602195,None,,,,,50,2,202,2,,,,,492.25587480000104,,492.2406562999968,492.25587480000104,493.25518340000417,493.25518340000417,493.25518340000417,493.25518340000417,493.25518340000417,494.2551870000025,494.2551870000025,494.48944309999933,c,1,0.21873609999602195,None,,,,,,,,,,,,,,,ishita,001,2024-10-16_15h20.56.519,Motor Sequence,2024.2.2,60.08900383515513,2024-10-16 15h21.06.325936 +0530,
-150,z,203,3,50,z,1,0.17416860000230372,None,,,,,50,3,203,3,,,,,494.5046310000034,,494.48978260000877,494.5046310000034,495.5039392000035,495.5039392000035,495.5039392000035,495.5039392000035,495.5039392000035,496.503804699998,496.503804699998,496.68784860000596,z,1,0.17416860000230372,None,,,,,,,,,,,,,,,ishita,001,2024-10-16_15h20.56.519,Motor Sequence,2024.2.2,60.08900383515513,2024-10-16 15h21.06.325936 +0530,
-50,x,204,0,51,x,1,0.6785946000018157,None,,,,,51,0,204,0,,,,,496.70335239999986,,496.6881405000022,496.70335239999986,497.70320119999815,497.70320119999815,497.70320119999815,497.70320119999815,497.70320119999815,498.7026943999954,498.7026943999954,499.38705240000854,x,1,0.6785946000018157,None,,,,,,,,,,,,,,,ishita,001,2024-10-16_15h20.56.519,Motor Sequence,2024.2.2,60.08900383515513,2024-10-16 15h21.06.325936 +0530,
150,v,205,1,51,v,1,0.28466769999067765,None,,,,,51,1,205,1,,,,,499.40256679999584,,499.3873606999987,499.40256679999584,500.40235070000926,500.40235070000926,500.40235070000926,500.40235070000926,500.40235070000926,501.40192260000913,501.40192260000913,501.70263640000485,v,1,0.28466769999067765,None,,,,,,,,,,,,,,,ishita,001,2024-10-16_15h20.56.519,Motor Sequence,2024.2.2,60.08900383515513,2024-10-16 15h21.06.325936 +0530,
50,c,206,2,51,c,1,0.341859399995883,None,,,,,51,2,206,2,,,,,501.71796619999805,,501.7030681000033,501.71796619999805,502.7176669000037,502.7176669000037,502.7176669000037,502.7176669000037,502.7176669000037,503.7178808000026,503.7178808000026,504.0689310000016,c,1,0.341859399995883,None,,,,,,,,,,,,,,,ishita,001,2024-10-16_15h20.56.519,Motor Sequence,2024.2.2,60.08900383515513,2024-10-16 15h21.06.325936 +0530,
-150,z,207,3,51,z,1,0.8565883999981452,None,,,,,51,3,207,3,,,,,504.0838214999967,,504.0692351000034,504.0838214999967,505.0837126999977,505.0837126999977,505.0837126999977,505.0837126999977,505.0837126999977,506.08315750000475,506.08315750000475,506.95008110000344,z,1,0.8565883999981452,None,,,,,,,,,,,,,,,ishita,001,2024-10-16_15h20.56.519,Motor Sequence,2024.2.2,60.08900383515513,2024-10-16 15h21.06.325936 +0530,
-50,x,208,0,52,x,1,0.5258434000134002,None,,,,,52,0,208,0,,,,,506.96558099999675,,506.9503781999956,506.96558099999675,507.9654389000061,507.9654389000061,507.9654389000061,507.9654389000061,507.9654389000061,508.96497349999845,508.96497349999845,509.4990439999965,x,1,0.5258434000134002,None,,,,,,,,,,,,,,,ishita,001,2024-10-16_15h20.56.519,Motor Sequence,2024.2.2,60.08900383515513,2024-10-16 15h21.06.325936 +0530,
150,v,209,1,52,v,1,0.3249592000065604,None,,,,,52,1,209,1,,,,,509.5146731999994,,509.49940670000797,509.5146731999994,510.4977917000069,510.4977917000069,510.4977917000069,510.4977917000069,510.5143106000032,511.51414850000583,511.51414850000583,511.8487519000046,v,1,0.3249592000065604,None,,,,,,,,,,,,,,,ishita,001,2024-10-16_15h20.56.519,Motor Sequence,2024.2.2,60.08900383515513,2024-10-16 15h21.06.325936 +0530,
50,c,210,2,52,c,1,0.3456605999963358,None,,,,,52,2,210,2,,,,,511.86398950000876,,511.8490762000001,511.86398950000876,512.8638893000025,512.8638893000025,512.8638893000025,512.8638893000025,512.8638893000025,513.862810400009,513.862810400009,514.2142695000075,c,1,0.3456605999963358,None,,,,,,,,,,,,,,,ishita,001,2024-10-16_15h20.56.519,Motor Sequence,2024.2.2,60.08900383515513,2024-10-16 15h21.06.325936 +0530,
-150,z,211,3,52,z,1,0.4720493000058923,None,,,,,52,3,211,3,,,,,514.2294406000001,,514.2146126000007,514.2294406000001,515.2292745000013,515.2292745000013,515.2292745000013,515.2292745000013,515.2292745000013,516.2290725000057,516.2290725000057,516.7126297000068,z,1,0.4720493000058923,None,,,,,,,,,,,,,,,ishita,001,2024-10-16_15h20.56.519,Motor Sequence,2024.2.2,60.08900383515513,2024-10-16 15h21.06.325936 +0530,
-50,x,212,0,53,x,1,0.3359338000009302,None,,,,,53,0,212,0,,,,,516.7282740000082,,516.7129335000063,516.7282740000082,517.7277155000047,517.7277155000047,517.7277155000047,517.7277155000047,517.7277155000047,518.727433100008,518.727433100008,519.0788646000001,x,1,0.3359338000009302,None,,,,,,,,,,,,,,,ishita,001,2024-10-16_15h20.56.519,Motor Sequence,2024.2.2,60.08900383515513,2024-10-16 15h21.06.325936 +0530,
150,v,213,1,53,v,1,0.3035396000050241,None,,,,,53,1,213,1,,,,,519.0940640000044,,519.0791683999996,519.0940640000044,520.0940954999969,520.0940954999969,520.0940954999969,520.0940954999969,520.0940954999969,521.0929265000013,521.0929265000013,521.4107742000051,v,1,0.3035396000050241,None,,,,,,,,,,,,,,,ishita,001,2024-10-16_15h20.56.519,Motor Sequence,2024.2.2,60.08900383515513,2024-10-16 15h21.06.325936 +0530,
50,c,214,2,53,c,1,0.2939137000066694,None,,,,,53,2,214,2,,,,,521.4262616000051,,521.4111263999948,521.4262616000051,522.4258981000021,522.4258981000021,522.4258981000021,522.4258981000021,522.4258981000021,523.4251252999966,523.4251252999966,523.7263832000026,c,1,0.2939137000066694,None,,,,,,,,,,,,,,,ishita,001,2024-10-16_15h20.56.519,Motor Sequence,2024.2.2,60.08900383515513,2024-10-16 15h21.06.325936 +0530,
-150,z,215,3,53,z,1,0.4699977999989642,None,,,,,53,3,215,3,,,,,523.7422301000042,,523.7266781000071,523.7422301000042,524.7413679000019,524.7413679000019,524.7413679000019,524.7413679000019,524.7413679000019,525.7413802000083,525.7413802000083,526.2251246999949,z,1,0.4699977999989642,None,,,,,,,,,,,,,,,ishita,001,2024-10-16_15h20.56.519,Motor Sequence,2024.2.2,60.08900383515513,2024-10-16 15h21.06.325936 +0530,
-50,x,216,0,54,x,1,0.5150105000066105,None,,,,,54,0,216,0,,,,,526.2408148999966,,526.2254163000034,526.2408148999966,527.2401230999967,527.2401230999967,527.2401230999967,527.2401230999967,527.2401230999967,528.2402436999982,528.2402436999982,528.7575108000019,x,1,0.5150105000066105,None,,,,,,,,,,,,,,,ishita,001,2024-10-16_15h20.56.519,Motor Sequence,2024.2.2,60.08900383515513,2024-10-16 15h21.06.325936 +0530,
150,v,217,1,54,v,1,0.3821445999928983,None,,,,,54,1,217,1,,,,,528.7730695000064,,528.7578336000006,528.7730695000064,529.7729836000071,529.7729836000071,529.7729836000071,529.7729836000071,529.7729836000071,530.7725651000073,530.7725651000073,531.1567751999974,v,1,0.3821445999928983,None,,,,,,,,,,,,,,,ishita,001,2024-10-16_15h20.56.519,Motor Sequence,2024.2.2,60.08900383515513,2024-10-16 15h21.06.325936 +0530,
50,c,218,2,54,c,1,0.33017229998949915,None,,,,,54,2,218,2,,,,,531.1723832999996,,531.1571612999978,531.1723832999996,532.1715440999978,532.1715440999978,532.1715440999978,532.1715440999978,532.1715440999978,533.1719392999948,533.1719392999948,533.5055670000002,c,1,0.33017229998949915,None,,,,,,,,,,,,,,,ishita,001,2024-10-16_15h20.56.519,Motor Sequence,2024.2.2,60.08900383515513,2024-10-16 15h21.06.325936 +0530,
-150,z,219,3,54,z,1,0.7548005999997258,None,,,,,54,3,219,3,,,,,533.5208287999994,,533.5058772000048,533.5208287999994,534.5205967000074,534.5205967000074,534.5205967000074,534.5205967000074,534.5205967000074,535.5206343000027,535.5206343000027,536.2878753999976,z,1,0.7548005999997258,None,,,,,,,,,,,,,,,ishita,001,2024-10-16_15h20.56.519,Motor Sequence,2024.2.2,60.08900383515513,2024-10-16 15h21.06.325936 +0530,
-50,x,220,0,55,x,1,0.25938309999764897,None,,,,,55,0,220,0,,,,,536.3030991999985,,536.2881829999969,536.3030991999985,537.3026618000004,537.3026618000004,537.3026618000004,537.3026618000004,537.3026618000004,538.302649300007,538.302649300007,538.5701814000058,x,1,0.25938309999764897,None,,,,,,,,,,,,,,,ishita,001,2024-10-16_15h20.56.519,Motor Sequence,2024.2.2,60.08900383515513,2024-10-16 15h21.06.325936 +0530,
150,v,221,1,55,v,1,0.3307173000066541,None,,,,,55,1,221,1,,,,,538.5855049000093,,538.570506899996,538.5855049000093,539.5851513999951,539.5851513999951,539.5851513999951,539.5851513999951,539.5851513999951,540.5851627000084,540.5851627000084,540.9184588000062,v,1,0.3307173000066541,None,,,,,,,,,,,,,,,ishita,001,2024-10-16_15h20.56.519,Motor Sequence,2024.2.2,60.08900383515513,2024-10-16 15h21.06.325936 +0530,
50,c,222,2,55,c,1,0.33740570000372827,None,,,,,55,2,222,2,,,,,540.9345297999971,,540.9187528000039,540.9345297999971,541.9179753000062,541.9179753000062,541.9179753000062,541.9179753000062,541.934076000005,542.9336954000028,542.9336954000028,543.2848095000081,c,1,0.33740570000372827,None,,,,,,,,,,,,,,,ishita,001,2024-10-16_15h20.56.519,Motor Sequence,2024.2.2,60.08900383515513,2024-10-16 15h21.06.325936 +0530,
-150,z,223,3,55,z,1,0.46289189999515656,None,,,,,55,3,223,3,,,,,543.300215700001,,543.285139700005,543.300215700001,544.2997040000046,544.2997040000046,544.2997040000046,544.2997040000046,544.2997040000046,545.2994294000091,545.2994294000091,545.7670168000041,z,1,0.46289189999515656,None,,,,,,,,,,,,,,,ishita,001,2024-10-16_15h20.56.519,Motor Sequence,2024.2.2,60.08900383515513,2024-10-16 15h21.06.325936 +0530,
-50,x,224,0,56,x,1,0.5236323999997694,None,,,,,56,0,224,0,,,,,545.7822569999989,,545.7673588000034,545.7822569999989,546.7819280999975,546.7819280999975,546.7819280999975,546.7819280999975,546.7819280999975,547.769317600003,547.769317600003,548.3036854000093,x,1,0.5236323999997694,None,,,,,,,,,,,,,,,ishita,001,2024-10-16_15h20.56.519,Motor Sequence,2024.2.2,60.08900383515513,2024-10-16 15h21.06.325936 +0530,
150,v,225,1,56,v,1,0.19923489999200683,None,,,,,56,1,225,1,,,,,548.3189600000042,,548.3040766000049,548.3189600000042,549.3184520000068,549.3184520000068,549.3184520000068,549.3184520000068,549.3184520000068,550.3185767999967,550.3185767999967,550.5198635999986,v,1,0.19923489999200683,None,,,,,,,,,,,,,,,ishita,001,2024-10-16_15h20.56.519,Motor Sequence,2024.2.2,60.08900383515513,2024-10-16 15h21.06.325936 +0530,
50,c,226,2,56,c,1,0.3935388999962015,None,,,,,56,2,226,2,,,,,550.5351244000049,,550.5201940999978,550.5351244000049,551.5340646999975,551.5340646999975,551.5340646999975,551.5340646999975,551.5340646999975,552.5340257000062,552.5340257000062,552.9341941000021,c,1,0.3935388999962015,None,,,,,,,,,,,,,,,ishita,001,2024-10-16_15h20.56.519,Motor Sequence,2024.2.2,60.08900383515513,2024-10-16 15h21.06.325936 +0530,
-150,z,227,3,56,z,1,0.2992246000067098,None,,,,,56,3,227,3,,,,,552.9501472999982,,552.9345065999951,552.9501472999982,553.9498454999994,553.9498454999994,553.9498454999994,553.9498454999994,553.9498454999994,554.9490757000021,554.9490757000021,555.2505521999992,z,1,0.2992246000067098,None,,,,,,,,,,,,,,,ishita,001,2024-10-16_15h20.56.519,Motor Sequence,2024.2.2,60.08900383515513,2024-10-16 15h21.06.325936 +0530,
-50,x,228,0,57,x,1,0.7385148000030313,None,,,,,57,0,228,0,,,,,555.2658468000009,,555.2508864999982,555.2658468000009,556.2658479000092,556.2658479000092,556.2658479000092,556.2658479000092,556.2658479000092,557.2655172000086,557.2655172000086,558.0153863000014,x,1,0.7385148000030313,None,,,,,,,,,,,,,,,ishita,001,2024-10-16_15h20.56.519,Motor Sequence,2024.2.2,60.08900383515513,2024-10-16 15h21.06.325936 +0530,
150,v,229,1,57,v,1,0.0359965999959968,None,,,,,57,1,229,1,,,,,558.0312086000049,,558.0156981000036,558.0312086000049,559.0311075000063,559.0311075000063,559.0311075000063,559.0311075000063,559.0311075000063,560.0304785000044,560.0304785000044,560.0821873999957,v,1,0.0359965999959968,None,,,,,,,,,,,,,,,ishita,001,2024-10-16_15h20.56.519,Motor Sequence,2024.2.2,60.08900383515513,2024-10-16 15h21.06.325936 +0530,
50,c,230,2,57,c,1,0.22146729999803938,None,,,,,57,2,230,2,,,,,560.0968160000048,,560.0825108999998,560.0968160000048,561.0967711999983,561.0967711999983,561.0967711999983,561.0967711999983,561.0967711999983,562.0962514999992,562.0962514999992,562.3303345000022,c,1,0.22146729999803938,None,,,,,,,,,,,,,,,ishita,001,2024-10-16_15h20.56.519,Motor Sequence,2024.2.2,60.08900383515513,2024-10-16 15h21.06.325936 +0530,
-150,z,231,3,57,z,1,0.24948260000383016,None,,,,,57,3,231,3,,,,,562.3458228999953,,562.3306239000085,562.3458228999953,563.3459905000054,563.3459905000054,563.3459905000054,563.3459905000054,563.3459905000054,564.344937300004,564.344937300004,564.5968026000046,z,1,0.24948260000383016,None,,,,,,,,,,,,,,,ishita,001,2024-10-16_15h20.56.519,Motor Sequence,2024.2.2,60.08900383515513,2024-10-16 15h21.06.325936 +0530,
-50,x,232,0,58,x,1,0.23295190000499133,None,,,,,58,0,232,0,,,,,564.6118106000067,,564.5971187999967,564.6118106000067,565.6118189999979,565.6118189999979,565.6118189999979,565.6118189999979,565.6118189999979,566.6109367000026,566.6109367000026,566.8457449999987,x,1,0.23295190000499133,None,,,,,,,,,,,,,,,ishita,001,2024-10-16_15h20.56.519,Motor Sequence,2024.2.2,60.08900383515513,2024-10-16 15h21.06.325936 +0530,
150,v,233,1,58,v,1,0.22797640001226682,None,,,,,58,1,233,1,,,,,566.8610689000052,,566.8460648000037,566.8610689000052,567.8608611000091,567.8608611000091,567.8608611000091,567.8608611000091,567.8608611000091,568.8601302000025,568.8601302000025,569.0945133000059,v,1,0.22797640001226682,None,,,,,,,,,,,,,,,ishita,001,2024-10-16_15h20.56.519,Motor Sequence,2024.2.2,60.08900383515513,2024-10-16 15h21.06.325936 +0530,
50,c,234,2,58,c,1,0.2090509999979986,None,,,,,58,2,234,2,,,,,569.1098091000022,,569.0948252999951,569.1098091000022,570.1092648000049,570.1092648000049,570.1092648000049,570.1092648000049,570.1092648000049,571.1093839999958,571.1093839999958,571.3262138999999,c,1,0.2090509999979986,None,,,,,,,,,,,,,,,ishita,001,2024-10-16_15h20.56.519,Motor Sequence,2024.2.2,60.08900383515513,2024-10-16 15h21.06.325936 +0530,
-150,z,235,3,58,z,1,0.19557060000079218,None,,,,,58,3,235,3,,,,,571.3419752000045,,571.3265257000021,571.3419752000045,572.325061399999,572.325061399999,572.325061399999,572.325061399999,572.3418764999951,573.3416300999961,573.3416300999961,573.5428303000081,z,1,0.19557060000079218,None,,,,,,,,,,,,,,,ishita,001,2024-10-16_15h20.56.519,Motor Sequence,2024.2.2,60.08900383515513,2024-10-16 15h21.06.325936 +0530,
-50,x,236,0,59,x,1,0.2802287999948021,None,,,,,59,0,236,0,,,,,573.5580419000034,,573.5431609000079,573.5580419000034,574.5575361000083,574.5575361000083,574.5575361000083,574.5575361000083,574.5575361000083,575.5572106000036,575.5572106000036,575.8411310000083,x,1,0.2802287999948021,None,,,,,,,,,,,,,,,ishita,001,2024-10-16_15h20.56.519,Motor Sequence,2024.2.2,60.08900383515513,2024-10-16 15h21.06.325936 +0530,
