reward_today,future_reward,delay,thisN,thisTrialN,thisRepN,key_resp.keys,key_resp.rt,key_resp.duration,trials.thisRepN,trials.thisTrialN,trials.thisN,trials.thisIndex,thisRow.t,notes,trial.started,fixation.started,text.started,key_resp.started,fixation.stopped,trial.stopped,trials.key_resp.keys,trials.key_resp.rt,trials.key_resp.duration,text.stopped,participant,session,date,expName,psychopyVersion,frameRate,expStart,
27,50,21,0,0,0,t,0.5728643999900669,None,0,0,0,2,0.07296730001689866,,0.05660070001613349,0.07296730001689866,1.0066585000022314,1.0066585000022314,1.0726603000075556,1.5896037999773398,t,0.5728643999900669,None,,Participant 2,001,2024-11-18_18h22.03.028,Delay dfiscounting,2024.2.4,60.07250753020822,2024-11-18 18h22.12.841404 +0530,
49,60,89,1,1,0,t,0.5585449000354856,None,0,1,1,4,1.605053199979011,,1.5937896000104956,1.605053199979011,2.605304599972442,2.605304599972442,2.605304599972442,3.172439399990253,t,0.5585449000354856,None,,Participant 2,001,2024-11-18_18h22.03.028,Delay dfiscounting,2024.2.4,60.07250753020822,2024-11-18 18h22.12.841404 +0530,
78,80,162,2,2,0,t,0.38196659996174276,None,0,2,2,6,3.1875951999682,,3.174718900001608,3.1875951999682,4.187806300004013,4.187806300004013,4.187806300004013,4.571859699964989,t,0.38196659996174276,None,,Participant 2,001,2024-11-18_18h22.03.028,Delay dfiscounting,2024.2.4,60.07250753020822,2024-11-18 18h22.12.841404 +0530,
15,35,13,3,3,0,t,0.3242234999779612,None,0,3,3,1,4.58695580001222,,4.575951799983159,4.58695580001222,5.587225599971134,5.587225599971134,5.587225599971134,5.921524600009434,t,0.3242234999779612,None,,Participant 2,001,2024-11-18_18h22.03.028,Delay dfiscounting,2024.2.4,60.07250753020822,2024-11-18 18h22.12.841404 +0530,
11,30,7,4,4,0,l,0.36703720001969486,None,0,4,4,0,5.936578999971971,,5.924098199990112,5.936578999971971,6.936675400007516,6.936675400007516,6.936675400007516,7.320658200012986,l,0.36703720001969486,None,,Participant 2,001,2024-11-18_18h22.03.028,Delay dfiscounting,2024.2.4,60.07250753020822,2024-11-18 18h22.12.841404 +0530,
40,55,62,5,5,0,t,0.20318289997521788,None,0,5,5,3,7.335889599984512,,7.323045299970545,7.335889599984512,8.336370199976955,8.336370199976955,8.336370199976955,8.552771999966353,t,0.20318289997521788,None,,Participant 2,001,2024-11-18_18h22.03.028,Delay dfiscounting,2024.2.4,60.07250753020822,2024-11-18 18h22.12.841404 +0530,
67,75,119,6,6,0,t,0.2295365000027232,None,0,6,6,5,8.56934759998694,,8.554904100019485,8.56934759998694,9.552182300016284,9.552182300016284,9.568848499970045,9.786448400001973,t,0.2295365000027232,None,,Participant 2,001,2024-11-18_18h22.03.028,Delay dfiscounting,2024.2.4,60.07250753020822,2024-11-18 18h22.12.841404 +0530,
67,75,119,7,0,1,t,0.22174279997125268,None,1,0,7,5,9.802268799976446,,9.786582699976861,9.802268799976446,10.801050400012173,10.801050400012173,10.801050400012173,11.03503719996661,t,0.22174279997125268,None,,Participant 2,001,2024-11-18_18h22.03.028,Delay dfiscounting,2024.2.4,60.07250753020822,2024-11-18 18h22.12.841404 +0530,
11,30,7,8,1,1,t,0.1981478999950923,None,1,1,8,0,11.050862099975348,,11.03757929999847,11.050862099975348,12.033731299976353,12.033731299976353,12.051391599990893,12.23479989997577,t,0.1981478999950923,None,,Participant 2,001,2024-11-18_18h22.03.028,Delay dfiscounting,2024.2.4,60.07250753020822,2024-11-18 18h22.12.841404 +0530,
27,50,21,9,2,1,t,0.3667649999842979,None,1,2,9,2,12.251535099989269,,12.23704869998619,12.251535099989269,13.233842300018296,13.233842300018296,13.267234099970665,13.601973899989389,t,0.3667649999842979,None,,Participant 2,001,2024-11-18_18h22.03.028,Delay dfiscounting,2024.2.4,60.07250753020822,2024-11-18 18h22.12.841404 +0530,
78,80,162,10,3,1,t,0.263320800033398,None,1,3,10,6,13.616471599962097,,13.60409559996333,13.616471599962097,14.616593200014904,14.616593200014904,14.616593200014904,14.88407329999609,t,0.263320800033398,None,,Participant 2,001,2024-11-18_18h22.03.028,Delay dfiscounting,2024.2.4,60.07250753020822,2024-11-18 18h22.12.841404 +0530,
15,35,13,11,4,1,l,0.46966890001203865,None,1,4,11,1,14.899169099982828,,14.886695499997586,14.899169099982828,15.899452099984046,15.899452099984046,15.899452099984046,16.383423699997365,l,0.46966890001203865,None,,Participant 2,001,2024-11-18_18h22.03.028,Delay dfiscounting,2024.2.4,60.07250753020822,2024-11-18 18h22.12.841404 +0530,
40,55,62,12,5,1,t,0.2176028999965638,None,1,5,12,3,16.39856190001592,,16.385751199966762,16.39856190001592,17.39879549999023,17.39879549999023,17.39879549999023,17.63274069997715,t,0.2176028999965638,None,,Participant 2,001,2024-11-18_18h22.03.028,Delay dfiscounting,2024.2.4,60.07250753020822,2024-11-18 18h22.12.841404 +0530,
49,60,89,13,6,1,t,0.2648371999966912,None,1,6,13,4,17.647943799966015,,17.634984700009227,17.647943799966015,18.648329499992542,18.648329499992542,18.648329499992542,18.91559489996871,t,0.2648371999966912,None,,Participant 2,001,2024-11-18_18h22.03.028,Delay dfiscounting,2024.2.4,60.07250753020822,2024-11-18 18h22.12.841404 +0530,
78,80,162,14,0,2,t,0.25264760002028197,None,2,0,14,6,18.930921499966644,,18.917664300010074,18.930921499966644,19.931134899961762,19.931134899961762,19.931134899961762,20.198413099977188,t,0.25264760002028197,None,,Participant 2,001,2024-11-18_18h22.03.028,Delay dfiscounting,2024.2.4,60.07250753020822,2024-11-18 18h22.12.841404 +0530,
11,30,7,15,1,2,l,2.048351100005675,None,2,1,15,0,20.213604299991857,,20.200896799971815,20.213604299991857,21.19705369998701,21.19705369998701,21.214477400004398,23.247241500008386,l,2.048351100005675,None,23.19642350001959,Participant 2,001,2024-11-18_18h22.03.028,Delay dfiscounting,2024.2.4,60.07250753020822,2024-11-18 18h22.12.841404 +0530,
40,55,62,16,2,2,t,0.3531358999898657,None,2,2,16,3,23.262249999970663,,23.24947169999359,23.262249999970663,24.26239849999547,24.26239849999547,24.26239849999547,24.629683099978138,t,0.3531358999898657,None,,Participant 2,001,2024-11-18_18h22.03.028,Delay dfiscounting,2024.2.4,60.07250753020822,2024-11-18 18h22.12.841404 +0530,
27,50,21,17,3,2,t,0.2660694000078365,None,2,3,17,2,24.646274300001096,,24.63206029997673,24.646274300001096,25.64542179997079,25.64542179997079,25.64542179997079,25.912627000012435,t,0.2660694000078365,None,,Participant 2,001,2024-11-18_18h22.03.028,Delay dfiscounting,2024.2.4,60.07250753020822,2024-11-18 18h22.12.841404 +0530,
15,35,13,18,4,2,t,0.17658820003271103,None,2,4,18,1,25.9277278999798,,25.91514359996654,25.9277278999798,26.927442999964114,26.927442999964114,26.927442999964114,27.11129550001351,t,0.17658820003271103,None,,Participant 2,001,2024-11-18_18h22.03.028,Delay dfiscounting,2024.2.4,60.07250753020822,2024-11-18 18h22.12.841404 +0530,
49,60,89,19,5,2,t,0.3523764999699779,None,2,5,19,4,27.127214399981312,,27.113604800018948,27.127214399981312,28.12671759998193,28.12671759998193,28.12671759998193,28.494130500010215,t,0.3523764999699779,None,,Participant 2,001,2024-11-18_18h22.03.028,Delay dfiscounting,2024.2.4,60.07250753020822,2024-11-18 18h22.12.841404 +0530,
67,75,119,20,6,2,t,0.3257049000239931,None,2,6,20,5,28.509977300011087,,28.496247400005814,28.509977300011087,29.492858699988574,29.492858699988574,29.50953749998007,29.82673440000508,t,0.3257049000239931,None,,Participant 2,001,2024-11-18_18h22.03.028,Delay dfiscounting,2024.2.4,60.07250753020822,2024-11-18 18h22.12.841404 +0530,
49,60,89,21,0,3,t,0.288029599993024,None,3,0,21,4,29.842658400011715,,29.829137499968056,29.842658400011715,30.842415899969637,30.842415899969637,30.842415899969637,31.14289469999494,t,0.288029599993024,None,,Participant 2,001,2024-11-18_18h22.03.028,Delay dfiscounting,2024.2.4,60.07250753020822,2024-11-18 18h22.12.841404 +0530,
67,75,119,22,1,3,t,0.24671010003658012,None,3,1,22,5,31.158728300011717,,31.14507590001449,31.158728300011717,32.15833359997487,32.15833359997487,32.15833359997487,32.40897250000853,t,0.24671010003658012,None,,Participant 2,001,2024-11-18_18h22.03.028,Delay dfiscounting,2024.2.4,60.07250753020822,2024-11-18 18h22.12.841404 +0530,
15,35,13,23,2,3,t,0.32345349999377504,None,3,2,23,1,32.425103200017475,,32.41151489998447,32.425103200017475,33.424508499971125,33.424508499971125,33.424508499971125,33.758474199974444,t,0.32345349999377504,None,,Participant 2,001,2024-11-18_18h22.03.028,Delay dfiscounting,2024.2.4,60.07250753020822,2024-11-18 18h22.12.841404 +0530,
11,30,7,24,3,3,l,0.35382970003411174,None,3,3,24,0,33.77434359997278,,33.76092470000731,33.77434359997278,34.77401719999034,34.77401719999034,34.77401719999034,35.14116900000954,l,0.35382970003411174,None,,Participant 2,001,2024-11-18_18h22.03.028,Delay dfiscounting,2024.2.4,60.07250753020822,2024-11-18 18h22.12.841404 +0530,
27,50,21,25,4,3,t,0.3231518000247888,None,3,4,25,2,35.157250399992336,,35.14345809997758,35.157250399992336,36.140203699993435,36.140203699993435,36.157178599969484,36.47412239998812,t,0.3231518000247888,None,,Participant 2,001,2024-11-18_18h22.03.028,Delay dfiscounting,2024.2.4,60.07250753020822,2024-11-18 18h22.12.841404 +0530,
78,80,162,26,5,3,t,0.19438100000843406,None,3,5,26,6,36.48992339998949,,36.47626729996409,36.48992339998949,37.489483800018206,37.489483800018206,37.489483800018206,37.690043699985836,t,0.19438100000843406,None,,Participant 2,001,2024-11-18_18h22.03.028,Delay dfiscounting,2024.2.4,60.07250753020822,2024-11-18 18h22.12.841404 +0530,
40,55,62,27,6,3,t,0.21474520000629127,None,3,6,27,3,37.70605769997928,,37.692374899983406,37.70605769997928,38.70567619998474,38.70567619998474,38.70567619998474,38.922793700010516,t,0.21474520000629127,None,,Participant 2,001,2024-11-18_18h22.03.028,Delay dfiscounting,2024.2.4,60.07250753020822,2024-11-18 18h22.12.841404 +0530,
78,80,162,28,0,4,t,0.3033491999958642,None,4,0,28,6,38.93879939999897,,38.92496959998971,38.93879939999897,39.93846470001154,39.93846470001154,39.93846470001154,40.256704700004775,t,0.3033491999958642,None,,Participant 2,001,2024-11-18_18h22.03.028,Delay dfiscounting,2024.2.4,60.07250753020822,2024-11-18 18h22.12.841404 +0530,
40,55,62,29,1,4,t,0.4139543999917805,None,4,1,29,3,40.271788999962155,,40.25897729996359,40.271788999962155,41.27112399996258,41.27112399996258,41.27112399996258,41.68862039997475,t,0.4139543999917805,None,,Participant 2,001,2024-11-18_18h22.03.028,Delay dfiscounting,2024.2.4,60.07250753020822,2024-11-18 18h22.12.841404 +0530,
27,50,21,30,2,4,l,0.6727478000102565,None,4,2,30,2,41.704340900003444,,41.69088479998754,41.704340900003444,42.70402559998911,42.70402559998911,42.70402559998911,43.38777059997665,l,0.6727478000102565,None,,Participant 2,001,2024-11-18_18h22.03.028,Delay dfiscounting,2024.2.4,60.07250753020822,2024-11-18 18h22.12.841404 +0530,
15,35,13,31,3,4,t,0.29360199999064207,None,4,3,31,1,43.403518499981146,,43.3904174999916,43.403518499981146,44.40306149999378,44.40306149999378,44.40306149999378,44.70353780000005,t,0.29360199999064207,None,,Participant 2,001,2024-11-18_18h22.03.028,Delay dfiscounting,2024.2.4,60.07250753020822,2024-11-18 18h22.12.841404 +0530,
49,60,89,32,4,4,t,0.31925459997728467,None,4,4,32,4,44.71976920001907,,44.705750299966894,44.71976920001907,45.702586099971086,45.702586099971086,45.71922550001182,46.03642039996339,t,0.31925459997728467,None,,Participant 2,001,2024-11-18_18h22.03.028,Delay dfiscounting,2024.2.4,60.07250753020822,2024-11-18 18h22.12.841404 +0530,
67,75,119,33,5,4,t,0.190441099985037,None,4,5,33,5,46.05232519999845,,46.03858270001365,46.05232519999845,47.051938899967354,47.051938899967354,47.051938899967354,47.25266369996825,t,0.190441099985037,None,,Participant 2,001,2024-11-18_18h22.03.028,Delay dfiscounting,2024.2.4,60.07250753020822,2024-11-18 18h22.12.841404 +0530,
11,30,7,34,6,4,t,0.23094680003123358,None,4,6,34,0,47.268544299993664,,47.255165199982,47.268544299993664,48.268043100018986,48.268043100018986,48.268043100018986,48.50191809999524,t,0.23094680003123358,None,,Participant 2,001,2024-11-18_18h22.03.028,Delay dfiscounting,2024.2.4,60.07250753020822,2024-11-18 18h22.12.841404 +0530,
11,30,7,35,0,5,t,0.21038960001897067,None,5,0,35,0,48.51791769999545,,48.50211170001421,48.51791769999545,49.51749519997975,49.51749519997975,49.51749519997975,49.7348626999883,t,0.21038960001897067,None,,Participant 2,001,2024-11-18_18h22.03.028,Delay dfiscounting,2024.2.4,60.07250753020822,2024-11-18 18h22.12.841404 +0530,
27,50,21,36,1,5,t,0.23056200001155958,None,5,1,36,2,49.75105600000825,,49.73722110001836,49.75105600000825,50.73373470001388,50.73373470001388,50.75066809996497,50.96765940001933,t,0.23056200001155958,None,,Participant 2,001,2024-11-18_18h22.03.028,Delay dfiscounting,2024.2.4,60.07250753020822,2024-11-18 18h22.12.841404 +0530,
67,75,119,37,2,5,t,0.19807460001902655,None,5,2,37,5,50.983662399987224,,50.97003979998408,50.983662399987224,51.98318300000392,51.98318300000392,51.98318300000392,52.1834221999743,t,0.19807460001902655,None,,Participant 2,001,2024-11-18_18h22.03.028,Delay dfiscounting,2024.2.4,60.07250753020822,2024-11-18 18h22.12.841404 +0530,
78,80,162,38,3,5,t,0.2618538000388071,None,5,3,38,6,52.199772999971174,,52.18550879997201,52.199772999971174,53.18261199997505,53.18261199997505,53.19924779998837,53.44995539996307,t,0.2618538000388071,None,,Participant 2,001,2024-11-18_18h22.03.028,Delay dfiscounting,2024.2.4,60.07250753020822,2024-11-18 18h22.12.841404 +0530,
40,55,62,39,4,5,t,0.4229683000012301,None,5,4,39,3,53.465873099979945,,53.452736200008076,53.465873099979945,54.46531459997641,54.46531459997641,54.46531459997641,54.89900769997621,t,0.4229683000012301,None,,Participant 2,001,2024-11-18_18h22.03.028,Delay dfiscounting,2024.2.4,60.07250753020822,2024-11-18 18h22.12.841404 +0530,
49,60,89,40,5,5,t,0.43926199997076765,None,5,5,40,4,54.9151995999855,,54.90123469999526,54.9151995999855,55.89814000000479,55.89814000000479,55.91473939997377,56.348628900013864,t,0.43926199997076765,None,,Participant 2,001,2024-11-18_18h22.03.028,Delay dfiscounting,2024.2.4,60.07250753020822,2024-11-18 18h22.12.841404 +0530,
15,35,13,41,6,5,l,0.8917839999776334,None,5,6,41,1,56.36463109997567,,56.351447199995164,56.36463109997567,57.364185800019186,57.364185800019186,57.364185800019186,58.264469899993856,l,0.8917839999776334,None,,Participant 2,001,2024-11-18_18h22.03.028,Delay dfiscounting,2024.2.4,60.07250753020822,2024-11-18 18h22.12.841404 +0530,
78,80,162,42,0,6,t,0.5101869000354782,None,6,0,42,6,58.280644099984784,,58.266579999995884,58.280644099984784,59.279951700009406,59.279951700009406,59.279951700009406,59.79718190000858,t,0.5101869000354782,None,,Participant 2,001,2024-11-18_18h22.03.028,Delay dfiscounting,2024.2.4,60.07250753020822,2024-11-18 18h22.12.841404 +0530,
15,35,13,43,1,6,l,0.6698478999896906,None,6,1,43,1,59.81328120001126,,59.79994579998311,59.81328120001126,60.8125726999715,60.8125726999715,60.8125726999715,61.49654999998165,l,0.6698478999896906,None,,Participant 2,001,2024-11-18_18h22.03.028,Delay dfiscounting,2024.2.4,60.07250753020822,2024-11-18 18h22.12.841404 +0530,
67,75,119,44,2,6,t,0.38731799996457994,None,6,2,44,5,61.51231469999766,,61.49863119999645,61.51231469999766,62.512064400012605,62.512064400012605,62.512064400012605,62.91271369997412,t,0.38731799996457994,None,,Participant 2,001,2024-11-18_18h22.03.028,Delay dfiscounting,2024.2.4,60.07250753020822,2024-11-18 18h22.12.841404 +0530,
49,60,89,45,3,6,t,0.5338223000289872,None,6,3,45,4,62.928495200001635,,62.91519580001477,62.928495200001635,63.92804139998043,63.92804139998043,63.92804139998043,64.47857460001251,t,0.5338223000289872,None,,Participant 2,001,2024-11-18_18h22.03.028,Delay dfiscounting,2024.2.4,60.07250753020822,2024-11-18 18h22.12.841404 +0530,
27,50,21,46,4,6,l,1.0619057000149041,None,6,4,46,2,64.49440570001025,,64.48084909998579,64.49440570001025,65.4939766000025,65.4939766000025,65.4939766000025,66.56112490000669,l,1.0619057000149041,None,,Participant 2,001,2024-11-18_18h22.03.028,Delay dfiscounting,2024.2.4,60.07250753020822,2024-11-18 18h22.12.841404 +0530,
40,55,62,47,5,6,t,0.8073582999641076,None,6,5,47,3,66.57687109999824,,66.56367289996706,66.57687109999824,67.57656469999347,67.57656469999347,67.57656469999347,68.39342719997512,t,0.8073582999641076,None,,Participant 2,001,2024-11-18_18h22.03.028,Delay dfiscounting,2024.2.4,60.07250753020822,2024-11-18 18h22.12.841404 +0530,
11,30,7,48,6,6,l,0.594158600026276,None,6,6,48,0,68.40934489999199,,68.39581379998708,68.40934489999199,69.4088977999636,69.4088977999636,69.4088977999636,70.0094192000106,l,0.594158600026276,None,,Participant 2,001,2024-11-18_18h22.03.028,Delay dfiscounting,2024.2.4,60.07250753020822,2024-11-18 18h22.12.841404 +0530,
11,30,7,49,0,7,t,0.19466440001269802,None,7,0,49,0,70.02538329997333,,70.0096029000124,70.02538329997333,71.02500710001914,71.02500710001914,71.02500710001914,71.22582059999695,t,0.19466440001269802,None,,Participant 2,001,2024-11-18_18h22.03.028,Delay dfiscounting,2024.2.4,60.07250753020822,2024-11-18 18h22.12.841404 +0530,
27,50,21,50,1,7,t,0.43620300001930445,None,7,1,50,2,71.24165539996466,,71.22821059997659,71.24165539996466,72.24116589996265,72.24116589996265,72.24116589996265,72.69135639996966,t,0.43620300001930445,None,,Participant 2,001,2024-11-18_18h22.03.028,Delay dfiscounting,2024.2.4,60.07250753020822,2024-11-18 18h22.12.841404 +0530,
67,75,119,51,2,7,t,0.4008320000139065,None,7,2,51,5,72.70759549998911,,72.69351090001874,72.70759549998911,73.69045300001744,73.69045300001744,73.7072099999641,74.10761479998473,t,0.4008320000139065,None,,Participant 2,001,2024-11-18_18h22.03.028,Delay dfiscounting,2024.2.4,60.07250753020822,2024-11-18 18h22.12.841404 +0530,
49,60,89,52,3,7,t,0.2979393000132404,None,7,3,52,4,74.12360469996929,,74.10983779997332,74.12360469996929,75.12307859997964,75.12307859997964,75.12307859997964,75.4234734000056,t,0.2979393000132404,None,,Participant 2,001,2024-11-18_18h22.03.028,Delay dfiscounting,2024.2.4,60.07250753020822,2024-11-18 18h22.12.841404 +0530,
15,35,13,53,4,7,l,1.289381599985063,None,7,4,53,1,75.43971639999654,,75.42633400001796,75.43971639999654,76.42263169999933,76.42263169999933,76.43925280001713,77.72262299997965,l,1.289381599985063,None,,Participant 2,001,2024-11-18_18h22.03.028,Delay dfiscounting,2024.2.4,60.07250753020822,2024-11-18 18h22.12.841404 +0530,
40,55,62,54,5,7,t,4.09546500002034,None,7,5,54,3,77.73891189997084,,77.72484229999827,77.73891189997084,78.73860009998316,78.73860009998316,78.73860009998316,82.83692620001966,t,4.09546500002034,None,80.7541518000071,Participant 2,001,2024-11-18_18h22.03.028,Delay dfiscounting,2024.2.4,60.07250753020822,2024-11-18 18h22.12.841404 +0530,
78,80,162,55,6,7,t,1.443266699963715,None,7,6,55,6,82.85324979998404,,82.83915249997517,82.85324979998404,83.83599739999045,83.83599739999045,83.85271140001714,85.28617129998747,t,1.443266699963715,None,,Participant 2,001,2024-11-18_18h22.03.028,Delay dfiscounting,2024.2.4,60.07250753020822,2024-11-18 18h22.12.841404 +0530,
78,80,162,56,0,8,t,0.7107988999923691,None,8,0,56,6,85.30240049998974,,85.28633600001922,85.30240049998974,86.3016753999982,86.3016753999982,86.3016753999982,87.01887859997805,t,0.7107988999923691,None,,Participant 2,001,2024-11-18_18h22.03.028,Delay dfiscounting,2024.2.4,60.07250753020822,2024-11-18 18h22.12.841404 +0530,
15,35,13,57,1,8,l,0.5056403999915347,None,8,1,57,1,87.03511060000164,,87.02144490001956,87.03511060000164,88.03423529997235,88.03423529997235,88.03423529997235,88.55106889997842,l,0.5056403999915347,None,,Participant 2,001,2024-11-18_18h22.03.028,Delay dfiscounting,2024.2.4,60.07250753020822,2024-11-18 18h22.12.841404 +0530,
27,50,21,58,2,8,l,0.3939756999607198,None,8,2,58,2,88.56738510000287,,88.55350969999563,88.56738510000287,89.55022350000218,89.55022350000218,89.56690859998344,89.95084659999702,l,0.3939756999607198,None,,Participant 2,001,2024-11-18_18h22.03.028,Delay dfiscounting,2024.2.4,60.07250753020822,2024-11-18 18h22.12.841404 +0530,
49,60,89,59,3,8,t,0.3580315000144765,None,8,3,59,4,89.96673809998902,,89.9531086999923,89.96673809998902,90.96634659997653,90.96634659997653,90.96634659997653,91.33352159999777,t,0.3580315000144765,None,,Participant 2,001,2024-11-18_18h22.03.028,Delay dfiscounting,2024.2.4,60.07250753020822,2024-11-18 18h22.12.841404 +0530,
11,30,7,60,4,8,l,0.4039681000285782,None,8,4,60,0,91.34956750000129,,91.33612549997633,91.34956750000129,92.33243880001828,92.33243880001828,92.34912079997594,92.74935749999713,l,0.4039681000285782,None,,Participant 2,001,2024-11-18_18h22.03.028,Delay dfiscounting,2024.2.4,60.07250753020822,2024-11-18 18h22.12.841404 +0530,
40,55,62,61,5,8,l,0.39464630000293255,None,8,5,61,3,92.76555090001784,,92.7517181999865,92.76555090001784,93.74847719998797,93.74847719998797,93.76502170000458,94.14896789996419,l,0.39464630000293255,None,,Participant 2,001,2024-11-18_18h22.03.028,Delay dfiscounting,2024.2.4,60.07250753020822,2024-11-18 18h22.12.841404 +0530,
67,75,119,62,6,8,t,0.4542653999524191,None,8,6,62,5,94.16487039998174,,94.15133459999925,94.16487039998174,95.16446489997907,95.16446489997907,95.16446489997907,95.63183789997129,t,0.4542653999524191,None,,Participant 2,001,2024-11-18_18h22.03.028,Delay dfiscounting,2024.2.4,60.07250753020822,2024-11-18 18h22.12.841404 +0530,
11,30,7,63,0,9,l,0.42970969999441877,None,9,0,63,0,95.64788399997633,,95.63425970001845,95.64788399997633,96.64713220001431,96.64713220001431,96.64713220001431,97.08114959998056,l,0.42970969999441877,None,,Participant 2,001,2024-11-18_18h22.03.028,Delay dfiscounting,2024.2.4,60.07250753020822,2024-11-18 18h22.12.841404 +0530,
40,55,62,64,1,9,t,0.5459224000223912,None,9,1,64,3,97.09697349998169,,97.08387380000204,97.09697349998169,98.09657950000837,98.09657950000837,98.09657950000837,98.64712039998267,t,0.5459224000223912,None,,Participant 2,001,2024-11-18_18h22.03.028,Delay dfiscounting,2024.2.4,60.07250753020822,2024-11-18 18h22.12.841404 +0530,
78,80,162,65,2,9,t,0.4807099000317976,None,9,2,65,6,98.66300000000047,,98.64927220001118,98.66300000000047,99.66321139998036,99.66321139998036,99.66321139998036,100.14664009999251,t,0.4807099000317976,None,,Participant 2,001,2024-11-18_18h22.03.028,Delay dfiscounting,2024.2.4,60.07250753020822,2024-11-18 18h22.12.841404 +0530,
15,35,13,66,3,9,l,0.46269650000613183,None,9,3,66,1,100.16256079997402,,100.14931929996237,100.16256079997402,101.16191769996658,101.16191769996658,101.16191769996658,101.62920640001539,l,0.46269650000613183,None,,Participant 2,001,2024-11-18_18h22.03.028,Delay dfiscounting,2024.2.4,60.07250753020822,2024-11-18 18h22.12.841404 +0530,
67,75,119,67,4,9,t,0.3889875000459142,None,9,4,67,5,101.64507450000383,,101.63132290000794,101.64507450000383,102.6445869000163,102.6445869000163,102.6445869000163,103.04485309997108,t,0.3889875000459142,None,,Participant 2,001,2024-11-18_18h22.03.028,Delay dfiscounting,2024.2.4,60.07250753020822,2024-11-18 18h22.12.841404 +0530,
27,50,21,68,5,9,l,0.6049734999542125,None,9,5,68,2,103.06135350000113,,103.04743239999516,103.06135350000113,104.04397120000795,104.04397120000795,104.06068059999961,104.66093279997585,l,0.6049734999542125,None,,Participant 2,001,2024-11-18_18h22.03.028,Delay dfiscounting,2024.2.4,60.07250753020822,2024-11-18 18h22.12.841404 +0530,
49,60,89,69,6,9,t,0.4951691000023857,None,9,6,69,4,104.67714639997575,,104.66324019996682,104.67714639997575,105.65996520000044,105.65996520000044,105.67661029996816,106.16060679999646,t,0.4951691000023857,None,,Participant 2,001,2024-11-18_18h22.03.028,Delay dfiscounting,2024.2.4,60.07250753020822,2024-11-18 18h22.12.841404 +0530,
67,75,119,70,0,10,t,0.6701394999981858,None,10,0,70,5,106.17694480001228,,106.16296099999454,106.17694480001228,107.1762598999776,107.1762598999776,107.19296909996774,107.85985609999625,t,0.6701394999981858,None,,Participant 2,001,2024-11-18_18h22.03.028,Delay dfiscounting,2024.2.4,60.07250753020822,2024-11-18 18h22.12.841404 +0530,
40,55,62,71,1,10,t,0.4463046999881044,None,10,1,71,3,107.87570049997885,,107.86213889997452,107.87570049997885,108.87521600001492,108.87521600001492,108.87521600001492,109.32548539998243,t,0.4463046999881044,None,,Participant 2,001,2024-11-18_18h22.03.028,Delay dfiscounting,2024.2.4,60.07250753020822,2024-11-18 18h22.12.841404 +0530,
78,80,162,72,2,10,t,0.39745699998456985,None,10,2,72,6,109.34178409999004,,109.32783859997289,109.34178409999004,110.32461909996346,110.32461909996346,110.34123119997093,110.72502429998713,t,0.39745699998456985,None,,Participant 2,001,2024-11-18_18h22.03.028,Delay dfiscounting,2024.2.4,60.07250753020822,2024-11-18 18h22.12.841404 +0530,
11,30,7,73,3,10,l,1.3794131999602541,None,10,3,73,0,110.7410772999865,,110.72752979997313,110.7410772999865,111.74070710001979,111.74070710001979,111.74070710001979,113.12445930001559,l,1.3794131999602541,None,,Participant 2,001,2024-11-18_18h22.03.028,Delay dfiscounting,2024.2.4,60.07250753020822,2024-11-18 18h22.12.841404 +0530,
49,60,89,74,4,10,t,0.9977710000239313,None,10,4,74,4,113.14011669997126,,113.12696919997688,113.14011669997126,114.13957699999446,114.13957699999446,114.13957699999446,115.13958989997627,t,0.9977710000239313,None,,Participant 2,001,2024-11-18_18h22.03.028,Delay dfiscounting,2024.2.4,60.07250753020822,2024-11-18 18h22.12.841404 +0530,
27,50,21,75,5,10,l,0.8389097999897785,None,10,5,75,2,115.15602329996182,,115.14188389998162,115.15602329996182,116.13882779999403,116.13882779999403,116.15538379998179,116.98918589996174,l,0.8389097999897785,None,,Participant 2,001,2024-11-18_18h22.03.028,Delay dfiscounting,2024.2.4,60.07250753020822,2024-11-18 18h22.12.841404 +0530,
15,35,13,76,6,10,t,0.708034899958875,None,10,6,76,1,117.00512220000383,,116.99199959996622,117.00512220000383,118.00457829999505,118.00457829999505,118.00457829999505,118.72171269997489,t,0.708034899958875,None,,Participant 2,001,2024-11-18_18h22.03.028,Delay dfiscounting,2024.2.4,60.07250753020822,2024-11-18 18h22.12.841404 +0530,
27,50,21,77,0,11,l,1.0168258000048809,None,11,0,77,2,118.73775839997688,,118.72405730001628,118.73775839997688,119.73731709999265,119.73731709999265,119.73731709999265,120.75540909997653,l,1.0168258000048809,None,,Participant 2,001,2024-11-18_18h22.03.028,Delay dfiscounting,2024.2.4,60.07250753020822,2024-11-18 18h22.12.841404 +0530,
40,55,62,78,1,11,t,0.5525319000007585,None,11,1,78,3,120.77032169996528,,120.7578499999945,120.77032169996528,121.76964740001131,121.76964740001131,121.76964740001131,122.3367687999853,t,0.5525319000007585,None,,Participant 2,001,2024-11-18_18h22.03.028,Delay dfiscounting,2024.2.4,60.07250753020822,2024-11-18 18h22.12.841404 +0530,
49,60,89,79,2,11,t,0.590965099981986,None,11,2,79,4,122.35275389999151,,122.33901900000637,122.35275389999151,123.35231029998977,123.35231029998977,123.35231029998977,123.9529218999669,t,0.590965099981986,None,,Participant 2,001,2024-11-18_18h22.03.028,Delay dfiscounting,2024.2.4,60.07250753020822,2024-11-18 18h22.12.841404 +0530,
78,80,162,80,3,11,t,0.5146842999965884,None,11,3,80,6,123.96872369997436,,123.95522359997267,123.96872369997436,124.96825749997515,124.96825749997515,124.96825749997515,125.4853010000079,t,0.5146842999965884,None,,Participant 2,001,2024-11-18_18h22.03.028,Delay dfiscounting,2024.2.4,60.07250753020822,2024-11-18 18h22.12.841404 +0530,
67,75,119,81,4,11,t,0.43611650000093505,None,11,4,81,5,125.50141520000761,,125.4875338000129,125.50141520000761,126.4844288000022,126.4844288000022,126.50094699999318,126.93479379999917,t,0.43611650000093505,None,,Participant 2,001,2024-11-18_18h22.03.028,Delay dfiscounting,2024.2.4,60.07250753020822,2024-11-18 18h22.12.841404 +0530,
11,30,7,82,5,11,l,0.5787402000278234,None,11,5,82,0,126.95090689999051,,126.93743539997377,126.95090689999051,127.95032760000322,127.95032760000322,127.95032760000322,128.53426059999038,l,0.5787402000278234,None,,Participant 2,001,2024-11-18_18h22.03.028,Delay dfiscounting,2024.2.4,60.07250753020822,2024-11-18 18h22.12.841404 +0530,
15,35,13,83,6,11,l,0.7049868000322022,None,11,6,83,1,128.55020210001385,,128.53675319999456,128.55020210001385,129.54958009999245,129.54958009999245,129.54958009999245,130.26697689999128,l,0.7049868000322022,None,,Participant 2,001,2024-11-18_18h22.03.028,Delay dfiscounting,2024.2.4,60.07250753020822,2024-11-18 18h22.12.841404 +0530,
67,75,119,84,0,12,t,0.5780983999720775,None,12,0,84,5,130.2827448999742,,130.26938750001136,130.2827448999742,131.28235310001764,131.28235310001764,131.28235310001764,131.8662130999728,t,0.5780983999720775,None,,Participant 2,001,2024-11-18_18h22.03.028,Delay dfiscounting,2024.2.4,60.07250753020822,2024-11-18 18h22.12.841404 +0530,
78,80,162,85,1,12,t,0.3498269999981858,None,12,1,85,6,131.88203169999178,,131.8683416999993,131.88203169999178,132.88159479998285,132.88159479998285,132.88159479998285,133.23255289997905,t,0.3498269999981858,None,,Participant 2,001,2024-11-18_18h22.03.028,Delay dfiscounting,2024.2.4,60.07250753020822,2024-11-18 18h22.12.841404 +0530,
40,55,62,86,2,12,t,0.6001738999621011,None,12,2,86,3,133.24812349997228,,133.23502019996522,133.24812349997228,134.24809870001627,134.24809870001627,134.24809870001627,134.8646282000118,t,0.6001738999621011,None,,Participant 2,001,2024-11-18_18h22.03.028,Delay dfiscounting,2024.2.4,60.07250753020822,2024-11-18 18h22.12.841404 +0530,
15,35,13,87,3,12,l,7.098070900014136,None,12,3,87,1,134.88087529997574,,134.8672314999858,134.88087529997574,135.86365030001616,135.86365030001616,135.88064109999686,142.97800150001422,l,7.098070900014136,None,137.86286870000185,Participant 2,001,2024-11-18_18h22.03.028,Delay dfiscounting,2024.2.4,60.07250753020822,2024-11-18 18h22.12.841404 +0530,
49,60,89,88,4,12,t,0.6508342000306584,None,12,4,88,4,142.99395159998676,,142.98087580001447,142.99395159998676,143.9932677000179,143.9932677000179,143.9932677000179,144.66060439997818,t,0.6508342000306584,None,,Participant 2,001,2024-11-18_18h22.03.028,Delay dfiscounting,2024.2.4,60.07250753020822,2024-11-18 18h22.12.841404 +0530,
11,30,7,89,5,12,l,0.4579461999819614,None,12,5,89,0,144.67652849998558,,144.66301169997314,144.67652849998558,145.67596809996758,145.67596809996758,145.67596809996758,146.14330499997595,l,0.4579461999819614,None,,Participant 2,001,2024-11-18_18h22.03.028,Delay dfiscounting,2024.2.4,60.07250753020822,2024-11-18 18h22.12.841404 +0530,
27,50,21,90,6,12,l,0.48362700000870973,None,12,6,90,2,146.1591078999918,,146.14582759997575,146.1591078999918,147.15879499999573,147.15879499999573,147.15879499999573,147.65928049996728,l,0.48362700000870973,None,,Participant 2,001,2024-11-18_18h22.03.028,Delay dfiscounting,2024.2.4,60.07250753020822,2024-11-18 18h22.12.841404 +0530,
40,55,62,91,0,13,t,0.4327761000022292,None,13,0,91,3,147.6752322000102,,147.66149630001746,147.6752322000102,148.67469010001514,148.67469010001514,148.67469010001514,149.10911590000615,t,0.4327761000022292,None,,Participant 2,001,2024-11-18_18h22.03.028,Delay dfiscounting,2024.2.4,60.07250753020822,2024-11-18 18h22.12.841404 +0530,
49,60,89,92,1,13,t,0.47186900000087917,None,13,1,92,4,149.12455169996247,,149.11152560001938,149.12455169996247,150.1240889999899,150.1240889999899,150.1240889999899,150.60803599999053,t,0.47186900000087917,None,,Participant 2,001,2024-11-18_18h22.03.028,Delay dfiscounting,2024.2.4,60.07250753020822,2024-11-18 18h22.12.841404 +0530,
67,75,119,93,2,13,t,0.3863766999565996,None,13,2,93,5,150.62375259998953,,150.6101529999869,150.62375259998953,151.6233681999729,151.6233681999729,151.6233681999729,152.02382880001096,t,0.3863766999565996,None,,Participant 2,001,2024-11-18_18h22.03.028,Delay dfiscounting,2024.2.4,60.07250753020822,2024-11-18 18h22.12.841404 +0530,
15,35,13,94,3,13,l,0.47233129997039214,None,13,3,94,1,152.03993119997904,,152.026599099976,152.03993119997904,153.03947239997797,153.03947239997797,153.03947239997797,153.52343070000643,l,0.47233129997039214,None,,Participant 2,001,2024-11-18_18h22.03.028,Delay dfiscounting,2024.2.4,60.07250753020822,2024-11-18 18h22.12.841404 +0530,
78,80,162,95,4,13,t,0.4564979999559,None,13,4,95,6,153.5392989999964,,153.52552580001066,153.5392989999964,154.5225071000168,154.5225071000168,154.5393359999871,154.98927610000828,t,0.4564979999559,None,,Participant 2,001,2024-11-18_18h22.03.028,Delay dfiscounting,2024.2.4,60.07250753020822,2024-11-18 18h22.12.841404 +0530,
27,50,21,96,5,13,l,0.4358117000083439,None,13,5,96,2,155.00527089997195,,154.99168809998082,155.00527089997195,156.0048417999642,156.0048417999642,156.0048417999642,156.45536019996507,l,0.4358117000083439,None,,Participant 2,001,2024-11-18_18h22.03.028,Delay dfiscounting,2024.2.4,60.07250753020822,2024-11-18 18h22.12.841404 +0530,
11,30,7,97,6,13,l,0.44111630000406876,None,13,6,97,0,156.47138840000844,,156.4578747000196,156.47138840000844,157.4710514000035,157.4710514000035,157.4710514000035,157.92142179998336,l,0.44111630000406876,None,,Participant 2,001,2024-11-18_18h22.03.028,Delay dfiscounting,2024.2.4,60.07250753020822,2024-11-18 18h22.12.841404 +0530,
15,35,13,98,0,14,t,0.3013465999974869,None,14,0,98,1,157.93740339996293,,157.92421159998048,157.93740339996293,158.93748789996607,158.93748789996607,158.93748789996607,159.25452929997118,t,0.3013465999974869,None,,Participant 2,001,2024-11-18_18h22.03.028,Delay dfiscounting,2024.2.4,60.07250753020822,2024-11-18 18h22.12.841404 +0530,
11,30,7,99,1,14,l,0.5047003999934532,None,14,1,99,0,159.2702390999766,,159.25689459999558,159.2702390999766,160.26971399999456,160.26971399999456,160.26971399999456,160.7870782999671,l,0.5047003999934532,None,,Participant 2,001,2024-11-18_18h22.03.028,Delay dfiscounting,2024.2.4,60.07250753020822,2024-11-18 18h22.12.841404 +0530,
49,60,89,100,2,14,t,0.6093428999884054,None,14,2,100,4,160.80345939996187,,160.78960329998517,160.80345939996187,161.8023146999767,161.8023146999767,161.8191098999814,162.41968789999373,t,0.6093428999884054,None,,Participant 2,001,2024-11-18_18h22.03.028,Delay dfiscounting,2024.2.4,60.07250753020822,2024-11-18 18h22.12.841404 +0530,
27,50,21,101,3,14,l,0.47506070003146306,None,14,3,101,2,162.43595680000726,,162.42205729999114,162.43595680000726,163.43526289996225,163.43526289996225,163.43526289996225,163.91887749999296,l,0.47506070003146306,None,,Participant 2,001,2024-11-18_18h22.03.028,Delay dfiscounting,2024.2.4,60.07250753020822,2024-11-18 18h22.12.841404 +0530,
40,55,62,102,4,14,t,0.39649420004570857,None,14,4,102,3,163.93493019999005,,163.9213660999667,163.93493019999005,164.93427119997796,164.93427119997796,164.93427119997796,165.33495109999785,t,0.39649420004570857,None,,Participant 2,001,2024-11-18_18h22.03.028,Delay dfiscounting,2024.2.4,60.07250753020822,2024-11-18 18h22.12.841404 +0530,
78,80,162,103,5,14,t,0.6435466999537311,None,14,5,103,6,165.35100620001322,,165.33709939999972,165.35100620001322,166.35037150001153,166.35037150001153,166.35037150001153,167.00084170000628,t,0.6435466999537311,None,,Participant 2,001,2024-11-18_18h22.03.028,Delay dfiscounting,2024.2.4,60.07250753020822,2024-11-18 18h22.12.841404 +0530,
67,75,119,104,6,14,t,0.400450200017076,None,14,6,104,5,167.01680559996748,,167.00322740001138,167.01680559996748,168.01642230001744,168.01642230001744,168.01642230001744,168.43330440000864,t,0.400450200017076,None,,Participant 2,001,2024-11-18_18h22.03.028,Delay dfiscounting,2024.2.4,60.07250753020822,2024-11-18 18h22.12.841404 +0530,
11,30,7,105,0,15,l,0.486620599986054,None,15,0,105,0,168.4496485000127,,168.43573590001324,168.4496485000127,169.43241800001124,169.43241800001124,169.44895990000805,169.93285320000723,l,0.486620599986054,None,,Participant 2,001,2024-11-18_18h22.03.028,Delay dfiscounting,2024.2.4,60.07250753020822,2024-11-18 18h22.12.841404 +0530,
15,35,13,106,1,15,l,0.502768800011836,None,15,1,106,1,169.94897560001118,,169.93567009997787,169.94897560001118,170.9483284999733,170.9483284999733,170.9483284999733,171.46572129998822,l,0.502768800011836,None,,Participant 2,001,2024-11-18_18h22.03.028,Delay dfiscounting,2024.2.4,60.07250753020822,2024-11-18 18h22.12.841404 +0530,
67,75,119,107,2,15,t,0.40013520000502467,None,15,2,107,5,171.48156970000127,,171.46807999996236,171.48156970000127,172.48117370001273,172.48117370001273,172.48117370001273,172.89817339996807,t,0.40013520000502467,None,,Participant 2,001,2024-11-18_18h22.03.028,Delay dfiscounting,2024.2.4,60.07250753020822,2024-11-18 18h22.12.841404 +0530,
78,80,162,108,3,15,t,0.46363220002967864,None,15,3,108,6,172.9142818999826,,172.90055510000093,172.9142818999826,173.89715749997413,173.89715749997413,173.9138185000047,174.3644338999875,t,0.46363220002967864,None,,Participant 2,001,2024-11-18_18h22.03.028,Delay dfiscounting,2024.2.4,60.07250753020822,2024-11-18 18h22.12.841404 +0530,
49,60,89,109,4,15,t,0.49997100001201034,None,15,4,109,4,174.38031229999615,,174.36670329998014,174.38031229999615,175.36324360000435,175.36324360000435,175.38031480001519,175.8803450000123,t,0.49997100001201034,None,,Participant 2,001,2024-11-18_18h22.03.028,Delay dfiscounting,2024.2.4,60.07250753020822,2024-11-18 18h22.12.841404 +0530,
40,55,62,110,5,15,t,0.48429539997596294,None,15,5,110,3,175.89633089996642,,175.88291119999485,175.89633089996642,176.8957371999859,176.8957371999859,176.8957371999859,177.39640640001744,t,0.48429539997596294,None,,Participant 2,001,2024-11-18_18h22.03.028,Delay dfiscounting,2024.2.4,60.07250753020822,2024-11-18 18h22.12.841404 +0530,
27,50,21,111,6,15,l,0.5259457999491133,None,15,6,111,2,177.41262129996903,,177.39864179998403,177.41262129996903,178.41185179998865,178.41185179998865,178.41185179998865,178.94578299997374,l,0.5259457999491133,None,,Participant 2,001,2024-11-18_18h22.03.028,Delay dfiscounting,2024.2.4,60.07250753020822,2024-11-18 18h22.12.841404 +0530,
78,80,162,112,0,16,t,0.628078700043261,None,16,0,112,6,178.96169749996625,,178.94846980000148,178.96169749996625,179.961252100009,179.961252100009,179.961252100009,180.59512569999788,t,0.628078700043261,None,,Participant 2,001,2024-11-18_18h22.03.028,Delay dfiscounting,2024.2.4,60.07250753020822,2024-11-18 18h22.12.841404 +0530,
11,30,7,113,1,16,l,0.6585945000406355,None,16,1,113,0,180.61110400001053,,180.59762549999868,180.61110400001053,181.61053090001224,181.61053090001224,181.61053090001224,182.27775810001185,l,0.6585945000406355,None,,Participant 2,001,2024-11-18_18h22.03.028,Delay dfiscounting,2024.2.4,60.07250753020822,2024-11-18 18h22.12.841404 +0530,
27,50,21,114,2,16,l,0.8804060000111349,None,16,2,114,2,182.29370669997297,,182.28020979999565,182.29370669997297,183.29316760000074,183.29316760000074,183.29316760000074,184.17660030000843,l,0.8804060000111349,None,,Participant 2,001,2024-11-18_18h22.03.028,Delay dfiscounting,2024.2.4,60.07250753020822,2024-11-18 18h22.12.841404 +0530,
49,60,89,115,3,16,t,0.5236673000035807,None,16,3,115,4,184.19262059999164,,184.17891119996784,184.19262059999164,185.19229629996698,185.19229629996698,185.19229629996698,185.7261691999738,t,0.5236673000035807,None,,Participant 2,001,2024-11-18_18h22.03.028,Delay dfiscounting,2024.2.4,60.07250753020822,2024-11-18 18h22.12.841404 +0530,
40,55,62,116,4,16,t,0.4621127999853343,None,16,4,116,3,185.74207559996285,,185.72865419997834,185.74207559996285,186.74164269998437,186.74164269998437,186.74164269998437,187.2088607000187,t,0.4621127999853343,None,,Participant 2,001,2024-11-18_18h22.03.028,Delay dfiscounting,2024.2.4,60.07250753020822,2024-11-18 18h22.12.841404 +0530,
67,75,119,117,5,16,t,0.3767929999739863,None,16,5,117,5,187.22475699998904,,187.21102009998867,187.22475699998904,188.22435049997875,188.22435049997875,188.22435049997875,188.6081075000111,t,0.3767929999739863,None,,Participant 2,001,2024-11-18_18h22.03.028,Delay dfiscounting,2024.2.4,60.07250753020822,2024-11-18 18h22.12.841404 +0530,
15,35,13,118,6,16,l,0.5186949000344612,None,16,6,118,1,188.6241374000092,,188.61085990001447,188.6241374000092,189.62363889999688,189.62363889999688,189.62363889999688,190.15746459999355,l,0.5186949000344612,None,,Participant 2,001,2024-11-18_18h22.03.028,Delay dfiscounting,2024.2.4,60.07250753020822,2024-11-18 18h22.12.841404 +0530,
67,75,119,119,0,17,t,0.4000737000023946,None,17,0,119,5,190.17342949996237,,190.1596405999735,190.17342949996237,191.17307849996723,191.17307849996723,191.17307849996723,191.59016269998392,t,0.4000737000023946,None,,Participant 2,001,2024-11-18_18h22.03.028,Delay dfiscounting,2024.2.4,60.07250753020822,2024-11-18 18h22.12.841404 +0530,
40,55,62,120,1,17,t,0.961836000031326,None,17,1,120,3,191.60619879997103,,191.59263189998455,191.60619879997103,192.60580680001294,192.60580680001294,192.60580680001294,193.57277319999412,t,0.961836000031326,None,,Participant 2,001,2024-11-18_18h22.03.028,Delay dfiscounting,2024.2.4,60.07250753020822,2024-11-18 18h22.12.841404 +0530,
49,60,89,121,2,17,t,0.6196378999738954,None,17,2,121,4,193.5886587999994,,193.57500020001316,193.5886587999994,194.58836619998328,194.58836619998328,194.58836619998328,195.22200830001384,t,0.6196378999738954,None,,Participant 2,001,2024-11-18_18h22.03.028,Delay dfiscounting,2024.2.4,60.07250753020822,2024-11-18 18h22.12.841404 +0530,
15,35,13,122,3,17,l,0.578027400013525,None,17,3,122,1,195.23816469998565,,195.22492179996334,195.23816469998565,196.23755329998676,196.23755329998676,196.23755329998676,196.82182179996744,l,0.578027400013525,None,,Participant 2,001,2024-11-18_18h22.03.028,Delay dfiscounting,2024.2.4,60.07250753020822,2024-11-18 18h22.12.841404 +0530,
11,30,7,123,4,17,l,0.4751162999891676,None,17,4,123,0,196.83735390001675,,196.82427029998507,196.83735390001675,197.83710090001114,197.83710090001114,197.83710090001114,198.3205138000194,l,0.4751162999891676,None,,Participant 2,001,2024-11-18_18h22.03.028,Delay dfiscounting,2024.2.4,60.07250753020822,2024-11-18 18h22.12.841404 +0530,
27,50,21,124,5,17,l,0.5926167999859899,None,17,5,124,2,198.33660609996878,,198.32305900001666,198.33660609996878,199.31963470001938,199.31963470001938,199.33612029999495,199.92002079996746,l,0.5926167999859899,None,,Participant 2,001,2024-11-18_18h22.03.028,Delay dfiscounting,2024.2.4,60.07250753020822,2024-11-18 18h22.12.841404 +0530,
78,80,162,125,6,17,t,0.5589532000012696,None,17,6,125,6,199.93594369996572,,199.92218679998768,199.93594369996572,200.9355486999848,200.9355486999848,200.9355486999848,201.50230230001034,t,0.5589532000012696,None,,Participant 2,001,2024-11-18_18h22.03.028,Delay dfiscounting,2024.2.4,60.07250753020822,2024-11-18 18h22.12.841404 +0530,
15,35,13,126,0,18,l,0.5199850000208244,None,18,0,126,1,201.51852029998554,,201.50487679999787,201.51852029998554,202.50150979997125,202.50150979997125,202.51814539998304,203.03504589997465,l,0.5199850000208244,None,,Participant 2,001,2024-11-18_18h22.03.028,Delay dfiscounting,2024.2.4,60.07250753020822,2024-11-18 18h22.12.841404 +0530,
27,50,21,127,1,18,l,0.44476089999079704,None,18,1,127,2,203.0512943000067,,203.03729999996722,203.0512943000067,204.03421359998174,204.03421359998174,204.0510461999802,204.48500569997123,l,0.44476089999079704,None,,Participant 2,001,2024-11-18_18h22.03.028,Delay dfiscounting,2024.2.4,60.07250753020822,2024-11-18 18h22.12.841404 +0530,
40,55,62,128,2,18,t,0.7761471999692731,None,18,2,128,3,204.50068619998638,,204.487476099981,204.50068619998638,205.50045039999532,205.50045039999532,205.50045039999532,206.2838291999651,t,0.7761471999692731,None,,Participant 2,001,2024-11-18_18h22.03.028,Delay dfiscounting,2024.2.4,60.07250753020822,2024-11-18 18h22.12.841404 +0530,
49,60,89,129,3,18,t,0.9054727000184357,None,18,3,129,4,206.29988229996525,,206.2860617999686,206.29988229996525,207.29941739997594,207.29941739997594,207.29941739997594,208.21632949996274,t,0.9054727000184357,None,,Participant 2,001,2024-11-18_18h22.03.028,Delay dfiscounting,2024.2.4,60.07250753020822,2024-11-18 18h22.12.841404 +0530,
67,75,119,130,4,18,t,0.7786281000007875,None,18,4,130,5,208.23230139998486,,208.21872170001734,208.23230139998486,209.23183880001307,209.23183880001307,209.23183880001307,210.01561220001895,t,0.7786281000007875,None,,Participant 2,001,2024-11-18_18h22.03.028,Delay dfiscounting,2024.2.4,60.07250753020822,2024-11-18 18h22.12.841404 +0530,
11,30,7,131,5,18,l,0.6817278999951668,None,18,5,131,0,210.03167840000242,,210.01800209999783,210.03167840000242,211.0311477999785,211.0311477999785,211.0311477999785,211.71463269996457,l,0.6817278999951668,None,,Participant 2,001,2024-11-18_18h22.03.028,Delay dfiscounting,2024.2.4,60.07250753020822,2024-11-18 18h22.12.841404 +0530,
78,80,162,132,6,18,t,1.1853805999853648,None,18,6,132,6,211.73078909999458,,211.7173609000165,211.73078909999458,212.71380269998917,212.71380269998917,212.73065049998695,213.91464909998467,t,1.1853805999853648,None,,Participant 2,001,2024-11-18_18h22.03.028,Delay dfiscounting,2024.2.4,60.07250753020822,2024-11-18 18h22.12.841404 +0530,
11,30,7,133,0,19,l,0.46462529996642843,None,19,0,133,0,213.93008530000225,,213.91781339998124,213.93008530000225,214.92956760001834,214.92956760001834,214.92956760001834,215.3964602999622,l,0.46462529996642843,None,,Participant 2,001,2024-11-18_18h22.03.028,Delay dfiscounting,2024.2.4,60.07250753020822,2024-11-18 18h22.12.841404 +0530,
78,80,162,134,1,19,t,0.38508290000027046,None,19,1,134,6,215.41282099997625,,215.39890480000759,215.41282099997625,216.3959971999866,216.3959971999866,216.4122257999843,216.7960607999703,t,0.38508290000027046,None,,Participant 2,001,2024-11-18_18h22.03.028,Delay dfiscounting,2024.2.4,60.07250753020822,2024-11-18 18h22.12.841404 +0530,
15,35,13,135,2,19,l,0.489154199953191,None,19,2,135,1,216.81213350000326,,216.79859909997322,216.81213350000326,217.81161609996343,217.81161609996343,217.81161609996343,218.31201449997025,l,0.489154199953191,None,,Participant 2,001,2024-11-18_18h22.03.028,Delay dfiscounting,2024.2.4,60.07250753020822,2024-11-18 18h22.12.841404 +0530,
40,55,62,136,3,19,t,0.5629375000135042,None,19,3,136,3,218.3280029000016,,218.31486749998294,218.3280029000016,219.3280367999687,219.3280367999687,219.3280367999687,219.89473759999964,t,0.5629375000135042,None,,Participant 2,001,2024-11-18_18h22.03.028,Delay dfiscounting,2024.2.4,60.07250753020822,2024-11-18 18h22.12.841404 +0530,
27,50,21,137,4,19,l,0.7240861000027508,None,19,4,137,2,219.9106503999792,,219.89708419999806,219.9106503999792,220.91049759997986,220.91049759997986,220.91049759997986,221.6440213000169,l,0.7240861000027508,None,,Participant 2,001,2024-11-18_18h22.03.028,Delay dfiscounting,2024.2.4,60.07250753020822,2024-11-18 18h22.12.841404 +0530,
49,60,89,138,5,19,t,1.0255378999863751,None,19,5,138,4,221.65984249999747,,221.64662519999547,221.65984249999747,222.64277079998283,222.64277079998283,222.65939829999115,223.6762748999754,t,1.0255378999863751,None,,Participant 2,001,2024-11-18_18h22.03.028,Delay dfiscounting,2024.2.4,60.07250753020822,2024-11-18 18h22.12.841404 +0530,
67,75,119,139,6,19,t,0.4624315000255592,None,19,6,139,5,223.6923766999971,,223.67850789998192,223.6923766999971,224.6757060000091,224.6757060000091,224.69202169997152,225.14262920001056,t,0.4624315000255592,None,,Participant 2,001,2024-11-18_18h22.03.028,Delay dfiscounting,2024.2.4,60.07250753020822,2024-11-18 18h22.12.841404 +0530,
27,50,21,140,0,20,l,0.5549423999618739,None,20,0,140,2,225.15846489998512,,225.1450582999969,225.15846489998512,226.15801949996967,226.15801949996967,226.15801949996967,226.72480709996307,l,0.5549423999618739,None,,Participant 2,001,2024-11-18_18h22.03.028,Delay dfiscounting,2024.2.4,60.07250753020822,2024-11-18 18h22.12.841404 +0530,
49,60,89,141,1,20,t,0.4593417000141926,None,20,1,141,4,226.74107769998955,,226.7271890999982,226.74107769998955,227.72452899999917,227.72452899999917,227.7406239999691,228.19101549999323,t,0.4593417000141926,None,,Participant 2,001,2024-11-18_18h22.03.028,Delay dfiscounting,2024.2.4,60.07250753020822,2024-11-18 18h22.12.841404 +0530,
40,55,62,142,2,20,l,0.5512530000414699,None,20,2,142,3,228.20720489998348,,228.19365600001765,228.20720489998348,229.20664769998984,229.20664769998984,229.20664769998984,229.77446430001874,l,0.5512530000414699,None,,Participant 2,001,2024-11-18_18h22.03.028,Delay dfiscounting,2024.2.4,60.07250753020822,2024-11-18 18h22.12.841404 +0530,
67,75,119,143,3,20,l,0.8502443000325002,None,20,3,143,5,229.7898642999935,,229.77667369996198,229.7898642999935,230.7892109999666,230.7892109999666,230.7892109999666,231.65621449996252,l,0.8502443000325002,None,,Participant 2,001,2024-11-18_18h22.03.028,Delay dfiscounting,2024.2.4,60.07250753020822,2024-11-18 18h22.12.841404 +0530,
15,35,13,144,4,20,l,0.8253872999921441,None,20,4,144,1,231.6721934999805,,231.65895080001792,231.6721934999805,232.65517849999014,232.65517849999014,232.6718568999786,233.48877890000585,l,0.8253872999921441,None,,Participant 2,001,2024-11-18_18h22.03.028,Delay dfiscounting,2024.2.4,60.07250753020822,2024-11-18 18h22.12.841404 +0530,
78,80,162,145,5,20,t,0.5819975999766029,None,20,5,145,6,233.5048955999664,,233.49090709997108,233.5048955999664,234.50440979999257,234.50440979999257,234.50440979999257,235.0880067999824,t,0.5819975999766029,None,,Participant 2,001,2024-11-18_18h22.03.028,Delay dfiscounting,2024.2.4,60.07250753020822,2024-11-18 18h22.12.841404 +0530,
11,30,7,146,6,20,l,0.5742945999954827,None,20,6,146,0,235.104249099968,,235.09060170000885,235.104249099968,236.1037570000044,236.1037570000044,236.1037570000044,236.68742719996953,l,0.5742945999954827,None,,Participant 2,001,2024-11-18_18h22.03.028,Delay dfiscounting,2024.2.4,60.07250753020822,2024-11-18 18h22.12.841404 +0530,
49,60,89,147,0,21,t,0.5107891000225209,None,21,0,147,4,236.70333759998903,,236.68967960000737,236.70333759998903,237.70371649996378,237.70371649996378,237.70371649996378,238.21992730000056,t,0.5107891000225209,None,,Participant 2,001,2024-11-18_18h22.03.028,Delay dfiscounting,2024.2.4,60.07250753020822,2024-11-18 18h22.12.841404 +0530,
67,75,119,148,1,21,t,0.41814480000175536,None,21,1,148,5,238.23614140000427,,238.22234639996896,238.23614140000427,239.219010300003,239.219010300003,239.2355857999646,239.65251169999829,t,0.41814480000175536,None,,Participant 2,001,2024-11-18_18h22.03.028,Delay dfiscounting,2024.2.4,60.07250753020822,2024-11-18 18h22.12.841404 +0530,
27,50,21,149,2,21,l,0.5238910000189207,None,21,2,149,2,239.66877869999735,,239.65485709998757,239.66877869999735,240.65170689998195,240.65170689998195,240.6683508999995,241.1852703000186,l,0.5238910000189207,None,,Participant 2,001,2024-11-18_18h22.03.028,Delay dfiscounting,2024.2.4,60.07250753020822,2024-11-18 18h22.12.841404 +0530,
11,30,7,150,3,21,l,0.5913570000557229,None,21,3,150,0,241.20135410001967,,241.18787089997204,241.20135410001967,242.18440349999582,242.18440349999582,242.20098029996734,242.7846921000164,l,0.5913570000557229,None,,Participant 2,001,2024-11-18_18h22.03.028,Delay dfiscounting,2024.2.4,60.07250753020822,2024-11-18 18h22.12.841404 +0530,
78,80,162,151,4,21,t,0.4112769999774173,None,21,4,151,6,242.80075749999378,,242.7868473000126,242.80075749999378,243.80046260001836,243.80046260001836,243.80046260001836,244.21743169997353,t,0.4112769999774173,None,,Participant 2,001,2024-11-18_18h22.03.028,Delay dfiscounting,2024.2.4,60.07250753020822,2024-11-18 18h22.12.841404 +0530,
40,55,62,152,5,21,t,0.5173777000163682,None,21,5,152,3,244.23345920001157,,244.2198945999844,244.23345920001157,245.23308199999155,245.23308199999155,245.23308199999155,245.76689600001555,t,0.5173777000163682,None,,Participant 2,001,2024-11-18_18h22.03.028,Delay dfiscounting,2024.2.4,60.07250753020822,2024-11-18 18h22.12.841404 +0530,
15,35,13,153,6,21,l,0.5104292999603786,None,21,6,153,1,245.7828506999649,,245.76941419998184,245.7828506999649,246.7823985000141,246.7823985000141,246.7823985000141,247.29942170000868,l,0.5104292999603786,None,,Participant 2,001,2024-11-18_18h22.03.028,Delay dfiscounting,2024.2.4,60.07250753020822,2024-11-18 18h22.12.841404 +0530,
40,55,62,154,0,22,t,0.6656425999826752,None,22,0,154,3,247.3155064000166,,247.30199050001102,247.3155064000166,248.31556869996712,248.31556869996712,248.31556869996712,248.98268519999692,t,0.6656425999826752,None,,Participant 2,001,2024-11-18_18h22.03.028,Delay dfiscounting,2024.2.4,60.07250753020822,2024-11-18 18h22.12.841404 +0530,
11,30,7,155,1,22,l,0.5347049999982119,None,22,1,155,0,248.9981772999745,,248.98502859997097,248.9981772999745,249.9976769000059,249.9976769000059,249.9976769000059,250.5481194999884,l,0.5347049999982119,None,,Participant 2,001,2024-11-18_18h22.03.028,Delay dfiscounting,2024.2.4,60.07250753020822,2024-11-18 18h22.12.841404 +0530,
78,80,162,156,2,22,t,0.3750422999728471,None,22,2,156,6,250.56402240000898,,250.5508016999811,250.56402240000898,251.56372009997722,251.56372009997722,251.56372009997722,251.94742179999594,t,0.3750422999728471,None,,Participant 2,001,2024-11-18_18h22.03.028,Delay dfiscounting,2024.2.4,60.07250753020822,2024-11-18 18h22.12.841404 +0530,
49,60,89,157,3,22,t,0.418052599998191,None,22,3,157,4,251.96356790000573,,251.94968479999807,251.96356790000573,252.96306119998917,252.96306119998917,252.96306119998917,253.3968659999664,t,0.418052599998191,None,,Participant 2,001,2024-11-18_18h22.03.028,Delay dfiscounting,2024.2.4,60.07250753020822,2024-11-18 18h22.12.841404 +0530,
15,35,13,158,4,22,l,0.4383149999775924,None,22,4,158,1,253.41279669996584,,253.3996548000141,253.41279669996584,254.4124094999861,254.4124094999861,254.4124094999861,254.8628346999758,l,0.4383149999775924,None,,Participant 2,001,2024-11-18_18h22.03.028,Delay dfiscounting,2024.2.4,60.07250753020822,2024-11-18 18h22.12.841404 +0530,
27,50,21,159,5,22,l,1.0563297999906354,None,22,5,159,2,254.87888380000368,,254.86505189997843,254.87888380000368,255.8783168999944,255.8783168999944,255.8783168999944,256.9452978000045,l,1.0563297999906354,None,,Participant 2,001,2024-11-18_18h22.03.028,Delay dfiscounting,2024.2.4,60.07250753020822,2024-11-18 18h22.12.841404 +0530,
67,75,119,160,6,22,t,0.3972790000261739,None,22,6,160,5,256.96129800000926,,256.9480337999994,256.96129800000926,257.9442721999949,257.9442721999949,257.9615086999838,258.34464610001305,t,0.3972790000261739,None,,Participant 2,001,2024-11-18_18h22.03.028,Delay dfiscounting,2024.2.4,60.07250753020822,2024-11-18 18h22.12.841404 +0530,
27,50,21,161,0,23,l,0.4498481000191532,None,23,0,161,2,258.36116630001925,,258.34695129998727,258.36116630001925,259.36027810000814,259.36027810000814,259.36027810000814,259.8113876999705,l,0.4498481000191532,None,,Participant 2,001,2024-11-18_18h22.03.028,Delay dfiscounting,2024.2.4,60.07250753020822,2024-11-18 18h22.12.841404 +0530,
67,75,119,162,1,23,t,0.4341164999641478,None,23,1,162,5,259.8268232999835,,259.81374589999905,259.8268232999835,260.82624749996467,260.82624749996467,260.82624749996467,261.2767542999936,t,0.4341164999641478,None,,Participant 2,001,2024-11-18_18h22.03.028,Delay dfiscounting,2024.2.4,60.07250753020822,2024-11-18 18h22.12.841404 +0530,
78,80,162,163,2,23,t,0.4682746000471525,None,23,2,163,6,261.29275439999765,,261.27884320000885,261.29275439999765,262.292394899996,262.292394899996,262.292394899996,262.7761189999874,t,0.4682746000471525,None,,Participant 2,001,2024-11-18_18h22.03.028,Delay dfiscounting,2024.2.4,60.07250753020822,2024-11-18 18h22.12.841404 +0530,
49,60,89,164,3,23,l,0.527346300019417,None,23,3,164,4,262.79214380000485,,262.7786862999783,262.79214380000485,263.7916691999999,263.7916691999999,263.7916691999999,264.3255100999959,l,0.527346300019417,None,,Participant 2,001,2024-11-18_18h22.03.028,Delay dfiscounting,2024.2.4,60.07250753020822,2024-11-18 18h22.12.841404 +0530,
40,55,62,165,4,23,t,0.535401200002525,None,23,4,165,3,264.3415958000114,,264.32798309996724,264.3415958000114,265.3415222999756,265.3415222999756,265.3415222999756,265.8914551999769,t,0.535401200002525,None,,Participant 2,001,2024-11-18_18h22.03.028,Delay dfiscounting,2024.2.4,60.07250753020822,2024-11-18 18h22.12.841404 +0530,
15,35,13,166,5,23,l,0.8860123000340536,None,23,5,166,1,265.9074598000152,,265.8941609999747,265.9074598000152,266.90695749997394,266.90695749997394,266.90695749997394,267.8073386999895,l,0.8860123000340536,None,,Participant 2,001,2024-11-18_18h22.03.028,Delay dfiscounting,2024.2.4,60.07250753020822,2024-11-18 18h22.12.841404 +0530,
11,30,7,167,6,23,l,0.6974330999655649,None,23,6,167,0,267.8233010999975,,267.8097911999794,267.8233010999975,268.8227928999695,268.8227928999695,268.8227928999695,269.52307619998464,l,0.6974330999655649,None,,Participant 2,001,2024-11-18_18h22.03.028,Delay dfiscounting,2024.2.4,60.07250753020822,2024-11-18 18h22.12.841404 +0530,
11,30,7,168,0,24,l,0.5908395000151359,None,24,0,168,0,269.5391599999857,,269.52326950000133,269.5391599999857,270.522564599989,270.522564599989,270.5394435999915,271.12248969997745,l,0.5908395000151359,None,,Participant 2,001,2024-11-18_18h22.03.028,Delay dfiscounting,2024.2.4,60.07250753020822,2024-11-18 18h22.12.841404 +0530,
27,50,21,169,1,24,l,1.0969882999779657,None,24,1,169,2,271.1384803999681,,271.1247919999878,271.1384803999681,272.13808439997956,272.13808439997956,272.13808439997956,273.2382309999666,l,1.0969882999779657,None,,Participant 2,001,2024-11-18_18h22.03.028,Delay dfiscounting,2024.2.4,60.07250753020822,2024-11-18 18h22.12.841404 +0530,
15,35,13,170,2,24,l,0.4733855999656953,None,24,2,170,1,273.2542779999785,,273.2407867999864,273.2542779999785,274.2538040999789,274.2538040999789,274.2538040999789,274.7377025000169,l,0.4733855999656953,None,,Participant 2,001,2024-11-18_18h22.03.028,Delay dfiscounting,2024.2.4,60.07250753020822,2024-11-18 18h22.12.841404 +0530,
78,80,162,171,3,24,t,0.39825819997349754,None,24,3,171,6,274.75356979999924,,274.73981050000293,274.75356979999924,275.75310169998556,275.75310169998556,275.75310169998556,276.15343359997496,t,0.39825819997349754,None,,Participant 2,001,2024-11-18_18h22.03.028,Delay dfiscounting,2024.2.4,60.07250753020822,2024-11-18 18h22.12.841404 +0530,
40,55,62,172,4,24,t,0.576333400036674,None,24,4,172,3,276.16980889998376,,276.1556234000018,276.16980889998376,277.1526054000133,277.1526054000133,277.1693604000029,277.73618850001367,t,0.576333400036674,None,,Participant 2,001,2024-11-18_18h22.03.028,Delay dfiscounting,2024.2.4,60.07250753020822,2024-11-18 18h22.12.841404 +0530,
49,60,89,173,5,24,t,0.4633536000037566,None,24,5,173,4,277.7522695999942,,277.73847129999194,277.7522695999942,278.73522869998123,278.73522869998123,278.75229089998174,279.20230599999195,t,0.4633536000037566,None,,Participant 2,001,2024-11-18_18h22.03.028,Delay dfiscounting,2024.2.4,60.07250753020822,2024-11-18 18h22.12.841404 +0530,
67,75,119,174,6,24,t,0.5574342000181787,None,24,6,174,5,279.2183627000195,,279.20441639999626,279.2183627000195,280.21786739997333,280.21786739997333,280.21786739997333,280.7851996999816,t,0.5574342000181787,None,,Participant 2,001,2024-11-18_18h22.03.028,Delay dfiscounting,2024.2.4,60.07250753020822,2024-11-18 18h22.12.841404 +0530,
78,80,162,175,0,25,t,0.40557150001404807,None,25,0,175,6,280.8010876000044,,280.78730329999235,280.8010876000044,281.8005594999995,281.8005594999995,281.8005594999995,282.2177142999717,t,0.40557150001404807,None,,Participant 2,001,2024-11-18_18h22.03.028,Delay dfiscounting,2024.2.4,60.07250753020822,2024-11-18 18h22.12.841404 +0530,
40,55,62,176,1,25,t,0.5274564000428654,None,25,1,176,3,282.23370450001676,,282.21996949997265,282.23370450001676,283.23384399997303,283.23384399997303,283.23384399997303,283.7670795000158,t,0.5274564000428654,None,,Participant 2,001,2024-11-18_18h22.03.028,Delay dfiscounting,2024.2.4,60.07250753020822,2024-11-18 18h22.12.841404 +0530,
27,50,21,177,2,25,l,0.5758826000383124,None,25,2,177,2,283.7830564000178,,283.7695262999623,283.7830564000178,284.78276809997624,284.78276809997624,284.78276809997624,285.36635939998087,l,0.5758826000383124,None,,Participant 2,001,2024-11-18_18h22.03.028,Delay dfiscounting,2024.2.4,60.07250753020822,2024-11-18 18h22.12.841404 +0530,
49,60,89,178,3,25,t,0.4072683999547735,None,25,3,178,4,285.38238079997245,,285.36858890001895,285.38238079997245,286.38207290001446,286.38207290001446,286.38207290001446,286.7989266999648,t,0.4072683999547735,None,,Participant 2,001,2024-11-18_18h22.03.028,Delay dfiscounting,2024.2.4,60.07250753020822,2024-11-18 18h22.12.841404 +0530,
67,75,119,179,4,25,t,0.5434738000039943,None,25,4,179,5,286.8152753000031,,286.80132079997566,286.8152753000031,287.7979039999773,287.7979039999773,287.81471040000906,288.34853760001715,t,0.5434738000039943,None,,Participant 2,001,2024-11-18_18h22.03.028,Delay dfiscounting,2024.2.4,60.07250753020822,2024-11-18 18h22.12.841404 +0530,
11,30,7,180,5,25,l,0.5316220000386238,None,25,5,180,0,288.36440219997894,,288.3510555999819,288.36440219997894,289.3640390000073,289.3640390000073,289.3640390000073,289.89785499998834,l,0.5316220000386238,None,,Participant 2,001,2024-11-18_18h22.03.028,Delay dfiscounting,2024.2.4,60.07250753020822,2024-11-18 18h22.12.841404 +0530,
15,35,13,181,6,25,l,0.5836024000309408,None,25,6,181,1,289.91374160000123,,289.90056019998156,289.91374160000123,290.9134182999842,290.9134182999842,290.9134182999842,291.51399750000564,l,0.5836024000309408,None,,Participant 2,001,2024-11-18_18h22.03.028,Delay dfiscounting,2024.2.4,60.07250753020822,2024-11-18 18h22.12.841404 +0530,
11,30,7,182,0,26,l,0.4011826000059955,None,26,0,182,0,291.5297433999949,,291.5165658000042,291.5297433999949,292.5293307999964,292.5293307999964,292.5293307999964,292.94662210001843,l,0.4011826000059955,None,,Participant 2,001,2024-11-18_18h22.03.028,Delay dfiscounting,2024.2.4,60.07250753020822,2024-11-18 18h22.12.841404 +0530,
78,80,162,183,1,26,t,0.44130519998725504,None,26,1,183,6,292.9625035999925,,292.94902120000916,292.9625035999925,293.9457740999642,293.9457740999642,293.96209749998525,294.3959518999909,t,0.44130519998725504,None,,Participant 2,001,2024-11-18_18h22.03.028,Delay dfiscounting,2024.2.4,60.07250753020822,2024-11-18 18h22.12.841404 +0530,
27,50,21,184,2,26,l,0.4327360999886878,None,26,2,184,2,294.41198919998715,,294.3981963999686,294.41198919998715,295.4114186000079,295.4114186000079,295.4114186000079,295.8455431999755,l,0.4327360999886878,None,,Participant 2,001,2024-11-18_18h22.03.028,Delay dfiscounting,2024.2.4,60.07250753020822,2024-11-18 18h22.12.841404 +0530,
67,75,119,185,3,26,t,0.3778409999795258,None,26,3,185,5,295.8612445999752,,295.84818729996914,295.8612445999752,296.8607420999906,296.8607420999906,296.8607420999906,297.2446964000119,t,0.3778409999795258,None,,Participant 2,001,2024-11-18_18h22.03.028,Delay dfiscounting,2024.2.4,60.07250753020822,2024-11-18 18h22.12.841404 +0530,
40,55,62,186,4,26,t,0.48759869998320937,None,26,4,186,3,297.26058150001336,,297.24699449999025,297.26058150001336,298.2601564999786,298.2601564999786,298.2601564999786,298.7604017999838,t,0.48759869998320937,None,,Participant 2,001,2024-11-18_18h22.03.028,Delay dfiscounting,2024.2.4,60.07250753020822,2024-11-18 18h22.12.841404 +0530,
15,35,13,187,5,26,l,0.5374617000343278,None,26,5,187,1,298.776828299975,,298.76305780000985,298.776828299975,299.7594428000157,299.7594428000157,299.77617029997054,300.310010999965,l,0.5374617000343278,None,,Participant 2,001,2024-11-18_18h22.03.028,Delay dfiscounting,2024.2.4,60.07250753020822,2024-11-18 18h22.12.841404 +0530,
49,60,89,188,6,26,t,0.9925675000413321,None,26,6,188,4,300.3259743999806,,300.3122643000097,300.3259743999806,301.32547629997134,301.32547629997134,301.32547629997134,302.3257602999802,t,0.9925675000413321,None,,Participant 2,001,2024-11-18_18h22.03.028,Delay dfiscounting,2024.2.4,60.07250753020822,2024-11-18 18h22.12.841404 +0530,
27,50,21,189,0,27,l,0.8811400000122376,None,27,0,189,2,302.34172299999045,,302.3282669999753,302.34172299999045,303.34118200000376,303.34118200000376,303.34118200000376,304.22473810001975,l,0.8811400000122376,None,,Participant 2,001,2024-11-18_18h22.03.028,Delay dfiscounting,2024.2.4,60.07250753020822,2024-11-18 18h22.12.841404 +0530,
78,80,162,190,1,27,t,0.443100799981039,None,27,1,190,6,304.2408049000078,,304.2268648999743,304.2408049000078,305.2236969000078,305.2236969000078,305.2407291000127,305.67445409996435,t,0.443100799981039,None,,Participant 2,001,2024-11-18_18h22.03.028,Delay dfiscounting,2024.2.4,60.07250753020822,2024-11-18 18h22.12.841404 +0530,
67,75,119,191,2,27,t,0.43272300000535324,None,27,2,191,5,305.6903982000076,,305.6768626999692,305.6903982000076,306.68983559997287,306.68983559997287,306.68983559997287,307.12429770000745,t,0.43272300000535324,None,,Participant 2,001,2024-11-18_18h22.03.028,Delay dfiscounting,2024.2.4,60.07250753020822,2024-11-18 18h22.12.841404 +0530,
49,60,89,192,3,27,t,0.3365095999906771,None,27,3,192,4,307.1397559000179,,307.126582900004,307.1397559000179,308.1393057999667,308.1393057999667,308.1393057999667,308.4900018000044,t,0.3365095999906771,None,,Participant 2,001,2024-11-18_18h22.03.028,Delay dfiscounting,2024.2.4,60.07250753020822,2024-11-18 18h22.12.841404 +0530,
40,55,62,193,4,27,t,0.362741399963852,None,27,4,193,3,308.5062041999772,,308.49254030000884,308.5062041999772,309.5054479999817,309.5054479999817,309.5054479999817,309.872288500017,t,0.362741399963852,None,,Participant 2,001,2024-11-18_18h22.03.028,Delay dfiscounting,2024.2.4,60.07250753020822,2024-11-18 18h22.12.841404 +0530,
11,30,7,194,5,27,l,0.41471199999796227,None,27,5,194,0,309.8884299999918,,309.87463839998236,309.8884299999918,310.87124730000505,310.87124730000505,310.88813179999124,311.2883445000043,l,0.41471199999796227,None,,Participant 2,001,2024-11-18_18h22.03.028,Delay dfiscounting,2024.2.4,60.07250753020822,2024-11-18 18h22.12.841404 +0530,
15,35,13,195,6,27,l,0.4683362999930978,None,27,6,195,1,311.30462790001184,,311.29099999996834,311.30462790001184,312.28725829999894,312.28725829999894,312.30453470000066,312.77162079996197,l,0.4683362999930978,None,,Participant 2,001,2024-11-18_18h22.03.028,Delay dfiscounting,2024.2.4,60.07250753020822,2024-11-18 18h22.12.841404 +0530,
15,35,13,196,0,28,l,0.7673998000100255,None,28,0,196,1,312.7873178999871,,312.7717636000016,312.7873178999871,313.7869631999638,313.7869631999638,313.7869631999638,314.57046600000467,l,0.7673998000100255,None,,Participant 2,001,2024-11-18_18h22.03.028,Delay dfiscounting,2024.2.4,60.07250753020822,2024-11-18 18h22.12.841404 +0530,
78,80,162,197,1,28,t,0.40263069997308776,None,28,1,197,6,314.586427000002,,314.57261450000806,314.586427000002,315.5860179999727,315.5860179999727,315.5860179999727,316.00380880001467,t,0.40263069997308776,None,,Participant 2,001,2024-11-18_18h22.03.028,Delay dfiscounting,2024.2.4,60.07250753020822,2024-11-18 18h22.12.841404 +0530,
67,75,119,198,2,28,t,0.42062219994841143,None,28,2,198,5,316.01928589999443,,316.00587170000654,316.01928589999443,317.01873139996314,317.01873139996314,317.01873139996314,317.45256760000484,t,0.42062219994841143,None,,Participant 2,001,2024-11-18_18h22.03.028,Delay dfiscounting,2024.2.4,60.07250753020822,2024-11-18 18h22.12.841404 +0530,
49,60,89,199,3,28,t,0.36128119996283203,None,28,3,199,4,317.46857129997807,,317.4548509999877,317.46857129997807,318.46823729999596,318.46823729999596,318.46823729999596,318.83553169999504,t,0.36128119996283203,None,,Participant 2,001,2024-11-18_18h22.03.028,Delay dfiscounting,2024.2.4,60.07250753020822,2024-11-18 18h22.12.841404 +0530,
40,55,62,200,4,28,t,0.384460500034038,None,28,4,200,3,318.85128920001443,,318.8377587000141,318.85128920001443,319.85092539998004,319.85092539998004,319.85092539998004,320.2512120999745,t,0.384460500034038,None,,Participant 2,001,2024-11-18_18h22.03.028,Delay dfiscounting,2024.2.4,60.07250753020822,2024-11-18 18h22.12.841404 +0530,
27,50,21,201,5,28,l,0.43793020001612604,None,28,5,201,2,320.26751410000725,,320.25348830001894,320.26751410000725,321.25026659999276,321.25026659999276,321.2677527999622,321.7006538999849,l,0.43793020001612604,None,,Participant 2,001,2024-11-18_18h22.03.028,Delay dfiscounting,2024.2.4,60.07250753020822,2024-11-18 18h22.12.841404 +0530,
11,30,7,202,6,28,t,0.2082871000166051,None,28,6,202,0,321.7167950000148,,321.7030066999723,321.7167950000148,322.69968510000035,322.69968510000035,322.7162861999823,322.91677379998146,t,0.2082871000166051,None,,Participant 2,001,2024-11-18_18h22.03.028,Delay dfiscounting,2024.2.4,60.07250753020822,2024-11-18 18h22.12.841404 +0530,
49,60,89,203,0,29,t,0.436645400011912,None,29,0,203,4,322.93296000000555,,322.9190246000071,322.93296000000555,323.93235020001885,323.93235020001885,323.93235020001885,324.3828416999895,t,0.436645400011912,None,,Participant 2,001,2024-11-18_18h22.03.028,Delay dfiscounting,2024.2.4,60.07250753020822,2024-11-18 18h22.12.841404 +0530,
11,30,7,204,1,29,l,0.393235600029584,None,29,1,204,0,324.3989549999824,,324.38517710001906,324.3989549999824,325.3984734999831,325.3984734999831,325.3984734999831,325.7989429999725,l,0.393235600029584,None,,Participant 2,001,2024-11-18_18h22.03.028,Delay dfiscounting,2024.2.4,60.07250753020822,2024-11-18 18h22.12.841404 +0530,
27,50,21,205,2,29,l,0.5863411000464112,None,29,2,205,2,325.81490220001433,,325.80118650000077,325.81490220001433,326.8144382999744,326.8144382999744,326.8144382999744,327.41482999996515,l,0.5863411000464112,None,,Participant 2,001,2024-11-18_18h22.03.028,Delay dfiscounting,2024.2.4,60.07250753020822,2024-11-18 18h22.12.841404 +0530,
40,55,62,206,3,29,t,0.4202242000028491,None,29,3,206,3,327.43099059996894,,327.41708559996914,327.43099059996894,328.4304563999758,328.4304563999758,328.4304563999758,328.8644082999672,t,0.4202242000028491,None,,Participant 2,001,2024-11-18_18h22.03.028,Delay dfiscounting,2024.2.4,60.07250753020822,2024-11-18 18h22.12.841404 +0530,
15,35,13,207,4,29,l,0.525336199963931,None,29,4,207,1,328.8802412999794,,328.86687610001536,328.8802412999794,329.8798981999862,329.8798981999862,329.8798981999862,330.4135043999995,l,0.525336199963931,None,,Participant 2,001,2024-11-18_18h22.03.028,Delay dfiscounting,2024.2.4,60.07250753020822,2024-11-18 18h22.12.841404 +0530,
78,80,162,208,5,29,t,0.5081008999841288,None,29,5,208,6,330.4296136999619,,330.4156249999651,330.4296136999619,331.4290422999766,331.4290422999766,331.4290422999766,331.9463146000053,t,0.5081008999841288,None,,Participant 2,001,2024-11-18_18h22.03.028,Delay dfiscounting,2024.2.4,60.07250753020822,2024-11-18 18h22.12.841404 +0530,
67,75,119,209,6,29,t,0.5144830999779515,None,29,6,209,5,331.96224470000016,,331.9484601999866,331.96224470000016,332.9454549999791,332.9454549999791,332.96183069999097,333.462045399996,t,0.5144830999779515,None,,Participant 2,001,2024-11-18_18h22.03.028,Delay dfiscounting,2024.2.4,60.07250753020822,2024-11-18 18h22.12.841404 +0530,
49,60,89,210,0,30,t,0.4441849999711849,None,30,0,210,4,333.478309899976,,333.46481440000935,333.478309899976,334.4619301999919,334.4619301999919,334.47794090001844,334.91187359998,t,0.4441849999711849,None,,Participant 2,001,2024-11-18_18h22.03.028,Delay dfiscounting,2024.2.4,60.07250753020822,2024-11-18 18h22.12.841404 +0530,
27,50,21,211,1,30,l,0.5466903999913484,None,30,1,211,2,334.92759609996574,,334.91433639999013,334.92759609996574,335.92719819996273,335.92719819996273,335.92719819996273,336.4775751999696,l,0.5466903999913484,None,,Participant 2,001,2024-11-18_18h22.03.028,Delay dfiscounting,2024.2.4,60.07250753020822,2024-11-18 18h22.12.841404 +0530,
78,80,162,212,2,30,t,0.3452594999689609,None,30,2,212,6,336.49371149996296,,336.48001429997385,336.49371149996296,337.4937409000122,337.4937409000122,337.4937409000122,337.84373049996793,t,0.3452594999689609,None,,Participant 2,001,2024-11-18_18h22.03.028,Delay dfiscounting,2024.2.4,60.07250753020822,2024-11-18 18h22.12.841404 +0530,
67,75,119,213,3,30,t,0.33024929999373853,None,30,3,213,5,337.85986209998373,,337.84582170000067,337.85986209998373,338.8592823999934,338.8592823999934,338.8592823999934,339.193288200011,t,0.33024929999373853,None,,Participant 2,001,2024-11-18_18h22.03.028,Delay dfiscounting,2024.2.4,60.07250753020822,2024-11-18 18h22.12.841404 +0530,
11,30,7,214,4,30,l,0.45003110001562163,None,30,4,214,0,339.20908210001653,,339.1958271000185,339.20908210001653,340.2085424999823,340.2085424999823,340.2085424999823,340.6596756000072,l,0.45003110001562163,None,,Participant 2,001,2024-11-18_18h22.03.028,Delay dfiscounting,2024.2.4,60.07250753020822,2024-11-18 18h22.12.841404 +0530,
15,35,13,215,5,30,l,0.5418555000214837,None,30,5,215,1,340.67517649999354,,340.6620738999918,340.67517649999354,341.67464330000803,341.67464330000803,341.67464330000803,342.22522349999053,l,0.5418555000214837,None,,Participant 2,001,2024-11-18_18h22.03.028,Delay dfiscounting,2024.2.4,60.07250753020822,2024-11-18 18h22.12.841404 +0530,
40,55,62,216,6,30,t,0.5062004999490455,None,30,6,216,3,342.2412178000086,,342.2276904999744,342.2412178000086,343.24070739996387,343.24070739996387,343.24070739996387,343.7578478999785,t,0.5062004999490455,None,,Participant 2,001,2024-11-18_18h22.03.028,Delay dfiscounting,2024.2.4,60.07250753020822,2024-11-18 18h22.12.841404 +0530,
78,80,162,217,0,31,t,0.4073829000117257,None,31,0,217,6,343.7738092999789,,343.7599101999658,343.7738092999789,344.773410099966,344.773410099966,344.773410099966,345.1903193999897,t,0.4073829000117257,None,,Participant 2,001,2024-11-18_18h22.03.028,Delay dfiscounting,2024.2.4,60.07250753020822,2024-11-18 18h22.12.841404 +0530,
40,55,62,218,1,31,t,0.40750169998500496,None,31,1,218,3,345.2065781999845,,345.1927016999689,345.2065781999845,346.1894977999618,346.1894977999618,346.20628879999276,346.60654000000795,t,0.40750169998500496,None,,Participant 2,001,2024-11-18_18h22.03.028,Delay dfiscounting,2024.2.4,60.07250753020822,2024-11-18 18h22.12.841404 +0530,
49,60,89,219,2,31,t,0.45479529997101054,None,31,2,219,4,346.6225556000136,,346.60877099999925,346.6225556000136,347.6221116000088,347.6221116000088,347.6221116000088,348.08947780000744,t,0.45479529997101054,None,,Participant 2,001,2024-11-18_18h22.03.028,Delay dfiscounting,2024.2.4,60.07250753020822,2024-11-18 18h22.12.841404 +0530,
67,75,119,220,3,31,t,0.3833558000042103,None,31,3,220,5,348.1052481000079,,348.09185389999766,348.1052481000079,349.08834660000866,349.08834660000866,349.10487689997535,349.4885884000105,t,0.3833558000042103,None,,Participant 2,001,2024-11-18_18h22.03.028,Delay dfiscounting,2024.2.4,60.07250753020822,2024-11-18 18h22.12.841404 +0530,
15,35,13,221,4,31,l,0.5379890999756753,None,31,4,221,1,349.50473089999286,,349.4911078999867,349.50473089999286,350.5042490999913,350.5042490999913,350.5042490999913,351.05476389999967,l,0.5379890999756753,None,,Participant 2,001,2024-11-18_18h22.03.028,Delay dfiscounting,2024.2.4,60.07250753020822,2024-11-18 18h22.12.841404 +0530,
27,50,21,222,5,31,l,2.0456940000294708,None,31,5,222,2,351.07064689998515,,351.05715900001815,351.07064689998515,352.07021149998764,352.07021149998764,352.07021149998764,354.1199046999682,l,2.0456940000294708,None,354.06927999999607,Participant 2,001,2024-11-18_18h22.03.028,Delay dfiscounting,2024.2.4,60.07250753020822,2024-11-18 18h22.12.841404 +0530,
11,30,7,223,6,31,l,0.5940466999891214,None,31,6,223,0,354.13604100001976,,354.1222898999695,354.13604100001976,355.1355649000034,355.1355649000034,355.1355649000034,355.7359426000039,l,0.5940466999891214,None,,Participant 2,001,2024-11-18_18h22.03.028,Delay dfiscounting,2024.2.4,60.07250753020822,2024-11-18 18h22.12.841404 +0530,
67,75,119,224,0,32,t,0.38482390000717714,None,32,0,224,5,355.75191499997163,,355.73826249997364,355.75191499997163,356.7514959999826,356.7514959999826,356.7514959999826,357.15222669998184,t,0.38482390000717714,None,,Participant 2,001,2024-11-18_18h22.03.028,Delay dfiscounting,2024.2.4,60.07250753020822,2024-11-18 18h22.12.841404 +0530,
15,35,13,225,1,32,t,0.5827387999743223,None,32,1,225,1,357.1680246000178,,357.1547244999674,357.1680246000178,358.16758929996286,358.16758929996286,358.16758929996286,358.75152250000974,t,0.5827387999743223,None,,Participant 2,001,2024-11-18_18h22.03.028,Delay dfiscounting,2024.2.4,60.07250753020822,2024-11-18 18h22.12.841404 +0530,
27,50,21,226,2,32,t,1.4364476000191644,None,32,2,226,2,358.7673648999771,,358.75386759999674,358.7673648999771,359.7670338000171,359.7670338000171,359.7670338000171,361.21712579997256,t,1.4364476000191644,None,,Participant 2,001,2024-11-18_18h22.03.028,Delay dfiscounting,2024.2.4,60.07250753020822,2024-11-18 18h22.12.841404 +0530,
11,30,7,227,3,32,l,0.6688559000031091,None,32,3,227,0,361.23290999996243,,361.21952759998385,361.23290999996243,362.2324458999792,362.2324458999792,362.2324458999792,362.91621009999653,l,0.6688559000031091,None,,Participant 2,001,2024-11-18_18h22.03.028,Delay dfiscounting,2024.2.4,60.07250753020822,2024-11-18 18h22.12.841404 +0530,
49,60,89,228,4,32,t,0.9124115000013262,None,32,4,228,4,362.9323054999695,,362.9186709999922,362.9323054999695,363.91519039997365,363.91519039997365,363.93173860001843,364.8321700000088,t,0.9124115000013262,None,,Participant 2,001,2024-11-18_18h22.03.028,Delay dfiscounting,2024.2.4,60.07250753020822,2024-11-18 18h22.12.841404 +0530,
40,55,62,229,5,32,t,0.6007017000229098,None,32,5,229,3,364.84802949998993,,364.83434880001005,364.84802949998993,365.84766699996544,365.84766699996544,365.84766699996544,366.4645392000093,t,0.6007017000229098,None,,Participant 2,001,2024-11-18_18h22.03.028,Delay dfiscounting,2024.2.4,60.07250753020822,2024-11-18 18h22.12.841404 +0530,
78,80,162,230,6,32,t,0.5569874999928288,None,32,6,230,6,366.4806894999929,,366.466871200013,366.4806894999929,367.48019360000035,367.48019360000035,367.48019360000035,368.04743939999025,t,0.5569874999928288,None,,Participant 2,001,2024-11-18_18h22.03.028,Delay dfiscounting,2024.2.4,60.07250753020822,2024-11-18 18h22.12.841404 +0530,
15,35,13,231,0,33,l,0.4890863000182435,None,33,0,231,1,368.063353799982,,368.0498951000045,368.063353799982,369.06293790001655,369.06293790001655,369.06293790001655,369.5633579000132,l,0.4890863000182435,None,,Participant 2,001,2024-11-18_18h22.03.028,Delay dfiscounting,2024.2.4,60.07250753020822,2024-11-18 18h22.12.841404 +0530,
11,30,7,232,1,33,l,0.38852089998545125,None,33,1,232,0,369.5793491000077,,369.5658828999731,369.5793491000077,370.57886149996193,370.57886149996193,370.57886149996193,370.9794117999845,l,0.38852089998545125,None,,Participant 2,001,2024-11-18_18h22.03.028,Delay dfiscounting,2024.2.4,60.07250753020822,2024-11-18 18h22.12.841404 +0530,
78,80,162,233,2,33,t,0.43033619999187067,None,33,2,233,6,370.9954211000004,,370.98154780000914,370.9954211000004,371.97833519999404,371.97833519999404,371.9949120999663,372.4120828000014,t,0.43033619999187067,None,,Participant 2,001,2024-11-18_18h22.03.028,Delay dfiscounting,2024.2.4,60.07250753020822,2024-11-18 18h22.12.841404 +0530,
67,75,119,234,3,33,t,0.3915520000155084,None,33,3,234,5,372.4281104999827,,372.4148133000126,372.4281104999827,373.42765069997404,373.42765069997404,373.42765069997404,373.8284199999762,t,0.3915520000155084,None,,Participant 2,001,2024-11-18_18h22.03.028,Delay dfiscounting,2024.2.4,60.07250753020822,2024-11-18 18h22.12.841404 +0530,
49,60,89,235,4,33,t,0.42660519998753443,None,33,4,235,4,373.84426320000784,,373.83059540000977,373.84426320000784,374.84377440001117,374.84377440001117,374.84377440001117,375.2778270000126,t,0.42660519998753443,None,,Participant 2,001,2024-11-18_18h22.03.028,Delay dfiscounting,2024.2.4,60.07250753020822,2024-11-18 18h22.12.841404 +0530,
40,55,62,236,5,33,t,0.40411820000736043,None,33,5,236,3,375.3498545999755,,375.34470949997194,375.3498545999755,376.28290310001466,376.28290310001466,376.349052799982,376.6995914999861,t,0.40411820000736043,None,,Participant 2,001,2024-11-18_18h22.03.028,Delay dfiscounting,2024.2.4,60.07250753020822,2024-11-18 18h22.12.841404 +0530,
27,50,21,237,6,33,l,0.4146619000239298,None,33,6,237,2,376.71556749998126,,376.70193909999216,376.71556749998126,377.71508599998197,377.71508599998197,377.71508599998197,378.13195989996893,l,0.4146619000239298,None,,Participant 2,001,2024-11-18_18h22.03.028,Delay dfiscounting,2024.2.4,60.07250753020822,2024-11-18 18h22.12.841404 +0530,
78,80,162,238,0,34,t,0.3973812999902293,None,34,0,238,6,378.14823609997984,,378.13423149997834,378.14823609997984,379.13113270001486,379.13113270001486,379.1477899000165,379.53154529997846,t,0.3973812999902293,None,,Participant 2,001,2024-11-18_18h22.03.028,Delay dfiscounting,2024.2.4,60.07250753020822,2024-11-18 18h22.12.841404 +0530,
11,30,7,239,1,34,l,0.4846133000100963,None,34,1,239,0,379.5476775999996,,379.53386480000336,379.5476775999996,380.5305550000048,380.5305550000048,380.547172999999,381.03108089999296,l,0.4846133000100963,None,,Participant 2,001,2024-11-18_18h22.03.028,Delay dfiscounting,2024.2.4,60.07250753020822,2024-11-18 18h22.12.841404 +0530,
40,55,62,240,2,34,t,0.43024489999515936,None,34,2,240,3,381.0470576999942,,381.0335177999805,381.0470576999942,382.0468669999973,382.0468669999973,382.0468669999973,382.4802986999857,t,0.43024489999515936,None,,Participant 2,001,2024-11-18_18h22.03.028,Delay dfiscounting,2024.2.4,60.07250753020822,2024-11-18 18h22.12.841404 +0530,
49,60,89,241,3,34,t,0.37123829999472946,None,34,3,241,4,382.49641419999534,,382.482579500007,382.49641419999534,383.4959935999941,383.4959935999941,383.4959935999941,383.8798117999686,t,0.37123829999472946,None,,Participant 2,001,2024-11-18_18h22.03.028,Delay dfiscounting,2024.2.4,60.07250753020822,2024-11-18 18h22.12.841404 +0530,
67,75,119,242,4,34,t,0.3654790999717079,None,34,4,242,5,383.8958147999947,,383.8821106000105,383.8958147999947,384.8953104999964,384.8953104999964,384.8953104999964,385.26234790001763,t,0.3654790999717079,None,,Participant 2,001,2024-11-18_18h22.03.028,Delay dfiscounting,2024.2.4,60.07250753020822,2024-11-18 18h22.12.841404 +0530,
15,35,13,243,5,34,l,0.5199992999550886,None,34,5,243,1,385.2784786999691,,385.2647771000047,385.2784786999691,386.2618607999757,386.2618607999757,386.278119399969,386.79518670000834,l,0.5199992999550886,None,,Participant 2,001,2024-11-18_18h22.03.028,Delay dfiscounting,2024.2.4,60.07250753020822,2024-11-18 18h22.12.841404 +0530,
27,50,21,244,6,34,l,1.4910706999944523,None,34,6,244,2,386.8111905999831,,386.79768469999544,386.8111905999831,387.8107017999864,387.8107017999864,387.8107017999864,389.31085389998043,l,1.4910706999944523,None,,Participant 2,001,2024-11-18_18h22.03.028,Delay dfiscounting,2024.2.4,60.07250753020822,2024-11-18 18h22.12.841404 +0530,
49,60,89,245,0,35,t,2.131053899996914,None,35,0,245,4,389.32679479999933,,389.31306670000777,389.32679479999933,390.3264043999952,390.3264043999952,390.3264043999952,392.4594350999687,t,2.131053899996914,None,392.3254495000001,Participant 2,001,2024-11-18_18h22.03.028,Delay dfiscounting,2024.2.4,60.07250753020822,2024-11-18 18h22.12.841404 +0530,
67,75,119,246,1,35,t,1.051520100038033,None,35,1,246,5,392.47544959996594,,392.4617636000039,392.47544959996594,393.4749722999986,393.4749722999986,393.4749722999986,394.54188560001785,t,1.051520100038033,None,,Participant 2,001,2024-11-18_18h22.03.028,Delay dfiscounting,2024.2.4,60.07250753020822,2024-11-18 18h22.12.841404 +0530,
15,35,13,247,2,35,l,0.6382223999826238,None,35,2,247,1,394.55804179998813,,394.5444520000019,394.55804179998813,395.55741279997164,395.55741279997164,395.55741279997164,396.2080146999797,l,0.6382223999826238,None,,Participant 2,001,2024-11-18_18h22.03.028,Delay dfiscounting,2024.2.4,60.07250753020822,2024-11-18 18h22.12.841404 +0530,
40,55,62,248,3,35,t,0.4913331000134349,None,35,3,248,3,396.2239215999725,,396.21052289998624,396.2239215999725,397.22332409996307,397.22332409996307,397.22332409996307,397.7238348000101,t,0.4913331000134349,None,,Participant 2,001,2024-11-18_18h22.03.028,Delay dfiscounting,2024.2.4,60.07250753020822,2024-11-18 18h22.12.841404 +0530,
27,50,21,249,4,35,l,0.4805623000138439,None,35,4,249,2,397.739788100007,,397.72613049997017,397.739788100007,398.73946999997133,398.73946999997133,398.73946999997133,399.2233172999695,l,0.4805623000138439,None,,Participant 2,001,2024-11-18_18h22.03.028,Delay dfiscounting,2024.2.4,60.07250753020822,2024-11-18 18h22.12.841404 +0530,
11,30,7,250,5,35,l,0.44576520001282915,None,35,5,250,0,399.23933539999416,,399.2261026999913,399.23933539999416,400.2388304999913,400.2388304999913,400.2388304999913,400.68929459998617,l,0.44576520001282915,None,,Participant 2,001,2024-11-18_18h22.03.028,Delay dfiscounting,2024.2.4,60.07250753020822,2024-11-18 18h22.12.841404 +0530,
78,80,162,251,6,35,t,0.4799378999741748,None,35,6,251,6,400.7051835000166,,400.6914303000085,400.7051835000166,401.70475540001644,401.70475540001644,401.70475540001644,402.18824709998444,t,0.4799378999741748,None,,Participant 2,001,2024-11-18_18h22.03.028,Delay dfiscounting,2024.2.4,60.07250753020822,2024-11-18 18h22.12.841404 +0530,
27,50,21,252,0,36,l,0.5203034000005573,None,36,0,252,2,402.20451419998426,,402.19065060000867,402.20451419998426,403.18740180000896,403.18740180000896,403.20412979996763,403.72129909996875,l,0.5203034000005573,None,,Participant 2,001,2024-11-18_18h22.03.028,Delay dfiscounting,2024.2.4,60.07250753020822,2024-11-18 18h22.12.841404 +0530,
11,30,7,253,1,36,l,0.45423949998803437,None,36,1,253,0,403.73726299998816,,403.7237140999641,403.73726299998816,404.7201783999917,404.7201783999917,404.7375335000106,405.18745739996666,l,0.45423949998803437,None,,Participant 2,001,2024-11-18_18h22.03.028,Delay dfiscounting,2024.2.4,60.07250753020822,2024-11-18 18h22.12.841404 +0530,
40,55,62,254,2,36,t,0.3838457999518141,None,36,2,254,3,405.20334920001915,,405.189876599994,405.20334920001915,406.20282579999184,406.20282579999184,406.20282579999184,406.6033759000129,t,0.3838457999518141,None,,Participant 2,001,2024-11-18_18h22.03.028,Delay dfiscounting,2024.2.4,60.07250753020822,2024-11-18 18h22.12.841404 +0530,
78,80,162,255,3,36,t,0.4066585000255145,None,36,3,255,6,406.619372199988,,406.60546370001975,406.619372199988,407.61895520001417,407.61895520001417,407.61895520001417,408.0359454000136,t,0.4066585000255145,None,,Participant 2,001,2024-11-18_18h22.03.028,Delay dfiscounting,2024.2.4,60.07250753020822,2024-11-18 18h22.12.841404 +0530,
67,75,119,256,4,36,t,0.47570000000996515,None,36,4,256,5,408.0520238999743,,408.0380141999922,408.0520238999743,409.03489429998444,409.03489429998444,409.05163210001774,409.51886959996773,t,0.47570000000996515,None,,Participant 2,001,2024-11-18_18h22.03.028,Delay dfiscounting,2024.2.4,60.07250753020822,2024-11-18 18h22.12.841404 +0530,
49,60,89,257,5,36,t,0.3823829999892041,None,36,5,257,4,409.53473079996184,,409.5214577000006,409.53473079996184,410.53428580000764,410.53428580000764,410.53428580000764,410.91846720001195,t,0.3823829999892041,None,,Participant 2,001,2024-11-18_18h22.03.028,Delay dfiscounting,2024.2.4,60.07250753020822,2024-11-18 18h22.12.841404 +0530,
15,35,13,258,6,36,l,0.5398916000267491,None,36,6,258,1,410.9341034999816,,410.921073400008,410.9341034999816,411.9336984999827,411.9336984999827,411.9336984999827,412.4844655999914,l,0.5398916000267491,None,,Participant 2,001,2024-11-18_18h22.03.028,Delay dfiscounting,2024.2.4,60.07250753020822,2024-11-18 18h22.12.841404 +0530,
40,55,62,259,0,37,t,0.39246230002027005,None,37,0,259,3,412.5001935000182,,412.48676890000934,412.5001935000182,413.49969640001655,413.49969640001655,413.49969640001655,413.9002369999653,t,0.39246230002027005,None,,Participant 2,001,2024-11-18_18h22.03.028,Delay dfiscounting,2024.2.4,60.07250753020822,2024-11-18 18h22.12.841404 +0530,
67,75,119,260,1,37,t,0.33675759995821863,None,37,1,260,5,413.91614769998705,,413.9031677999883,413.91614769998705,414.91573890001746,414.91573890001746,414.91573890001746,415.26609889999963,t,0.33675759995821863,None,,Participant 2,001,2024-11-18_18h22.03.028,Delay dfiscounting,2024.2.4,60.07250753020822,2024-11-18 18h22.12.841404 +0530,
78,80,162,261,2,37,t,0.3613344000186771,None,37,2,261,6,415.28263999999035,,415.26840279996395,415.28263999999035,416.28174379997654,416.28174379997654,416.28174379997654,416.64896259998204,t,0.3613344000186771,None,,Participant 2,001,2024-11-18_18h22.03.028,Delay dfiscounting,2024.2.4,60.07250753020822,2024-11-18 18h22.12.841404 +0530,
11,30,7,262,3,37,l,0.4418028999934904,None,37,3,262,0,416.6649657000089,,416.6516479999991,416.6649657000089,417.66457520000404,417.66457520000404,417.66457520000404,418.1153404999641,l,0.4418028999934904,None,,Participant 2,001,2024-11-18_18h22.03.028,Delay dfiscounting,2024.2.4,60.07250753020822,2024-11-18 18h22.12.841404 +0530,
49,60,89,263,4,37,t,0.3705483000376262,None,37,4,263,4,418.1309832999832,,418.1175884999684,418.1309832999832,419.1305863999878,419.1305863999878,419.1305863999878,419.5143597999704,t,0.3705483000376262,None,,Participant 2,001,2024-11-18_18h22.03.028,Delay dfiscounting,2024.2.4,60.07250753020822,2024-11-18 18h22.12.841404 +0530,
15,35,13,264,5,37,l,0.5211238999618217,None,37,5,264,1,419.53032799996436,,419.51714750000974,419.53032799996436,420.53001420001965,420.53001420001965,420.53001420001965,421.06387269997504,l,0.5211238999618217,None,,Participant 2,001,2024-11-18_18h22.03.028,Delay dfiscounting,2024.2.4,60.07250753020822,2024-11-18 18h22.12.841404 +0530,
27,50,21,265,6,37,l,0.42014210001798347,None,37,6,265,2,421.0799667999963,,421.0660894999746,421.0799667999963,422.0794283999712,422.0794283999712,422.0794283999712,422.51321609999286,l,0.42014210001798347,None,,Participant 2,001,2024-11-18_18h22.03.028,Delay dfiscounting,2024.2.4,60.07250753020822,2024-11-18 18h22.12.841404 +0530,
27,50,21,266,0,38,l,0.4226582999690436,None,38,0,266,2,422.52925089997007,,422.5133951000171,422.52925089997007,423.52864550001686,423.52864550001686,423.52864550001686,423.96258729998954,l,0.4226582999690436,None,,Participant 2,001,2024-11-18_18h22.03.028,Delay dfiscounting,2024.2.4,60.07250753020822,2024-11-18 18h22.12.841404 +0530,
49,60,89,267,1,38,t,3.949094299983699,None,38,1,267,4,423.9785135000129,,423.96490929997526,423.9785135000129,424.9780291999923,424.9780291999923,424.9780291999923,428.9437807999784,t,3.949094299983699,None,426.97734029998537,Participant 2,001,2024-11-18_18h22.03.028,Delay dfiscounting,2024.2.4,60.07250753020822,2024-11-18 18h22.12.841404 +0530,
78,80,162,268,2,38,t,0.7790247999946587,None,38,2,268,6,428.9596698000096,,428.94593360001454,428.9596698000096,429.95922049996443,429.95922049996443,429.95922049996443,430.7429076000117,t,0.7790247999946587,None,,Participant 2,001,2024-11-18_18h22.03.028,Delay dfiscounting,2024.2.4,60.07250753020822,2024-11-18 18h22.12.841404 +0530,
11,30,7,269,3,38,l,0.48799219995271415,None,38,3,269,0,430.75890989997424,,430.74533679999877,430.75890989997424,431.7417515999987,431.7417515999987,431.75845269998536,432.24198659998365,l,0.48799219995271415,None,,Participant 2,001,2024-11-18_18h22.03.028,Delay dfiscounting,2024.2.4,60.07250753020822,2024-11-18 18h22.12.841404 +0530,
67,75,119,270,4,38,t,0.4880823999992572,None,38,4,270,5,432.25820819998626,,432.2440500999801,432.25820819998626,433.2411476999987,433.2411476999987,433.2577770999633,433.74219459999586,t,0.4880823999992572,None,,Participant 2,001,2024-11-18_18h22.03.028,Delay dfiscounting,2024.2.4,60.07250753020822,2024-11-18 18h22.12.841404 +0530,
40,55,62,271,5,38,t,0.36984729999676347,None,38,5,271,3,433.75763359997654,,433.74459139996907,433.75763359997654,434.75761500000954,434.75761500000954,434.75761500000954,435.14102949999506,t,0.36984729999676347,None,,Participant 2,001,2024-11-18_18h22.03.028,Delay dfiscounting,2024.2.4,60.07250753020822,2024-11-18 18h22.12.841404 +0530,
15,35,13,272,6,38,l,0.5562621999997646,None,38,6,272,1,435.15701879997505,,435.14351590001024,435.15701879997505,436.15652000001865,436.15652000001865,436.15652000001865,436.7239354000194,l,0.5562621999997646,None,,Participant 2,001,2024-11-18_18h22.03.028,Delay dfiscounting,2024.2.4,60.07250753020822,2024-11-18 18h22.12.841404 +0530,
27,50,21,273,0,39,l,0.435967699973844,None,39,0,273,2,436.73987130000023,,436.726221000019,436.73987130000023,437.7228443999775,437.7228443999775,437.7393296000082,438.1729766000062,l,0.435967699973844,None,,Participant 2,001,2024-11-18_18h22.03.028,Delay dfiscounting,2024.2.4,60.07250753020822,2024-11-18 18h22.12.841404 +0530,
40,55,62,274,1,39,t,0.39156369998818263,None,39,1,274,3,438.18906930001685,,438.17531929997494,438.18906930001685,439.1885784000042,439.1885784000042,439.1885784000042,439.5892018000013,t,0.39156369998818263,None,,Participant 2,001,2024-11-18_18h22.03.028,Delay dfiscounting,2024.2.4,60.07250753020822,2024-11-18 18h22.12.841404 +0530,
15,35,13,275,2,39,l,0.48346829996444285,None,39,2,275,1,439.60504739999305,,439.5917188000167,439.60504739999305,440.6047564999899,440.6047564999899,440.6047564999899,441.10520320001524,l,0.48346829996444285,None,,Participant 2,001,2024-11-18_18h22.03.028,Delay dfiscounting,2024.2.4,60.07250753020822,2024-11-18 18h22.12.841404 +0530,
78,80,162,276,3,39,t,0.4168506999849342,None,39,3,276,6,441.12111790000927,,441.10725950001506,441.12111790000927,442.1207234999747,442.1207234999747,442.1207234999747,442.55436549999285,t,0.4168506999849342,None,,Participant 2,001,2024-11-18_18h22.03.028,Delay dfiscounting,2024.2.4,60.07250753020822,2024-11-18 18h22.12.841404 +0530,
67,75,119,277,4,39,t,0.32756599999265745,None,39,4,277,5,442.5705053000129,,442.55653780000284,442.5705053000129,443.55339839996304,443.55339839996304,443.5699913999997,443.88723789999494,t,0.32756599999265745,None,,Participant 2,001,2024-11-18_18h22.03.028,Delay dfiscounting,2024.2.4,60.07250753020822,2024-11-18 18h22.12.841404 +0530,
49,60,89,278,5,39,t,0.35764339996967465,None,39,5,278,4,443.90345799998613,,443.88946859998396,443.90345799998613,444.9028249999974,444.9028249999974,444.9028249999974,445.27015769999707,t,0.35764339996967465,None,,Participant 2,001,2024-11-18_18h22.03.028,Delay dfiscounting,2024.2.4,60.07250753020822,2024-11-18 18h22.12.841404 +0530,
11,30,7,279,6,39,l,0.4460560000152327,None,39,6,279,0,445.2859117999906,,445.27273520000745,445.2859117999906,446.28568369999994,446.28568369999994,446.28568369999994,446.73604779999005,l,0.4460560000152327,None,,Participant 2,001,2024-11-18_18h22.03.028,Delay dfiscounting,2024.2.4,60.07250753020822,2024-11-18 18h22.12.841404 +0530,
49,60,89,280,0,40,t,0.4105738999787718,None,40,0,280,4,446.7520381999784,,446.73829219996696,446.7520381999784,447.75171599996975,447.75171599996975,447.75171599996975,448.1684441000107,t,0.4105738999787718,None,,Participant 2,001,2024-11-18_18h22.03.028,Delay dfiscounting,2024.2.4,60.07250753020822,2024-11-18 18h22.12.841404 +0530,
67,75,119,281,1,40,t,0.3641871999716386,None,40,1,281,5,448.18470179999713,,448.1707468999666,448.18470179999713,449.1675834999769,449.1675834999769,449.1842783999746,449.53468009998323,t,0.3641871999716386,None,,Participant 2,001,2024-11-18_18h22.03.028,Delay dfiscounting,2024.2.4,60.07250753020822,2024-11-18 18h22.12.841404 +0530,
78,80,162,282,2,40,t,0.3658417999977246,None,40,2,282,6,449.5508342999965,,449.536979699973,449.5508342999965,450.53372379997745,450.53372379997745,450.5504580999841,450.9013706999831,t,0.3658417999977246,None,,Participant 2,001,2024-11-18_18h22.03.028,Delay dfiscounting,2024.2.4,60.07250753020822,2024-11-18 18h22.12.841404 +0530,
11,30,7,283,3,40,t,0.9919026999850757,None,40,3,283,0,450.91699060000246,,450.9040396999917,450.91699060000246,451.9163894999656,451.9163894999656,451.9163894999656,452.9168215999962,t,0.9919026999850757,None,,Participant 2,001,2024-11-18_18h22.03.028,Delay dfiscounting,2024.2.4,60.07250753020822,2024-11-18 18h22.12.841404 +0530,
15,35,13,284,4,40,t,0.5917874000151642,None,40,4,284,1,452.93269639997743,,452.91926689998945,452.93269639997743,453.9322752999724,453.9322752999724,453.9322752999724,454.5326358000166,t,0.5917874000151642,None,,Participant 2,001,2024-11-18_18h22.03.028,Delay dfiscounting,2024.2.4,60.07250753020822,2024-11-18 18h22.12.841404 +0530,
40,55,62,285,5,40,t,0.5696054000291042,None,40,5,285,3,454.54878579999786,,454.53546919999644,454.54878579999786,455.5481496999855,455.5481496999855,455.5481496999855,456.1319977999665,t,0.5696054000291042,None,,Participant 2,001,2024-11-18_18h22.03.028,Delay dfiscounting,2024.2.4,60.07250753020822,2024-11-18 18h22.12.841404 +0530,
27,50,21,286,6,40,t,0.893990800017491,None,40,6,286,2,456.14793599996483,,456.1341739000054,456.14793599996483,457.14756750001106,457.14756750001106,457.14756750001106,458.0476084999973,t,0.893990800017491,None,,Participant 2,001,2024-11-18_18h22.03.028,Delay dfiscounting,2024.2.4,60.07250753020822,2024-11-18 18h22.12.841404 +0530,
78,80,162,287,0,41,t,0.3837422000360675,None,41,0,287,6,458.0638003000058,,458.0500226999866,458.0638003000058,459.0466431999812,459.0466431999812,459.06331800000044,459.4471444999799,t,0.3837422000360675,None,,Participant 2,001,2024-11-18_18h22.03.028,Delay dfiscounting,2024.2.4,60.07250753020822,2024-11-18 18h22.12.841404 +0530,
15,35,13,288,1,41,t,0.38818529999116436,None,41,1,288,1,459.463151599979,,459.4497626000084,459.463151599979,460.4627164999838,460.4627164999838,460.4627164999838,460.86348110000836,t,0.38818529999116436,None,,Participant 2,001,2024-11-18_18h22.03.028,Delay dfiscounting,2024.2.4,60.07250753020822,2024-11-18 18h22.12.841404 +0530,
67,75,119,289,2,41,t,0.3538338000071235,None,41,2,289,5,460.87929319997784,,460.8658087999793,460.87929319997784,461.87890040001366,461.87890040001366,461.87890040001366,462.24600639997516,t,0.3538338000071235,None,,Participant 2,001,2024-11-18_18h22.03.028,Delay dfiscounting,2024.2.4,60.07250753020822,2024-11-18 18h22.12.841404 +0530,
27,50,21,290,3,41,t,0.549308999965433,None,41,3,290,2,462.26209629996447,,462.2482605999685,462.26209629996447,463.24497509998037,463.24497509998037,463.2620039000176,463.79566709999926,t,0.549308999965433,None,,Participant 2,001,2024-11-18_18h22.03.028,Delay dfiscounting,2024.2.4,60.07250753020822,2024-11-18 18h22.12.841404 +0530,
11,30,7,291,4,41,l,0.38985769997816533,None,41,4,291,0,463.8112705000094,,463.798193399969,463.8112705000094,464.8108865999966,464.8108865999966,464.8108865999966,465.21110159996897,l,0.38985769997816533,None,,Participant 2,001,2024-11-18_18h22.03.028,Delay dfiscounting,2024.2.4,60.07250753020822,2024-11-18 18h22.12.841404 +0530,
49,60,89,292,5,41,t,0.3641497999778949,None,41,5,292,4,465.22738509997725,,465.2133055999875,465.22738509997725,466.2102339999983,466.2102339999983,466.22683920001145,466.5772865000181,t,0.3641497999778949,None,,Participant 2,001,2024-11-18_18h22.03.028,Delay dfiscounting,2024.2.4,60.07250753020822,2024-11-18 18h22.12.841404 +0530,
40,55,62,293,6,41,t,0.31438719999277964,None,41,6,293,3,466.593447799969,,466.57984769996256,466.593447799969,467.5768430000171,467.5768430000171,467.5933373000007,467.8940072999685,t,0.31438719999277964,None,,Participant 2,001,2024-11-18_18h22.03.028,Delay dfiscounting,2024.2.4,60.07250753020822,2024-11-18 18h22.12.841404 +0530,
11,30,7,294,0,42,l,0.36811579996719956,None,42,0,294,0,467.9100882000057,,467.8964698999771,467.9100882000057,468.90909119998105,468.90909119998105,468.90909119998105,469.293028199987,l,0.36811579996719956,None,,Participant 2,001,2024-11-18_18h22.03.028,Delay dfiscounting,2024.2.4,60.07250753020822,2024-11-18 18h22.12.841404 +0530,
40,55,62,295,1,42,,,,42,1,295,3,469.30893130000914,,469.29557529999875,469.30893130000914,470.3085554999998,470.3085554999998,470.3085554999998,,,,,,,,,,,,,
