reward_today,future_reward,delay,thisN,thisTrialN,thisRepN,key_resp.keys,key_resp.rt,key_resp.duration,trials.thisRepN,trials.thisTrialN,trials.thisN,trials.thisIndex,thisRow.t,notes,trial.started,fixation.started,text.started,key_resp.started,fixation.stopped,trial.stopped,trials.key_resp.keys,trials.key_resp.rt,trials.key_resp.duration,text.stopped,participant,session,date,expName,psychopyVersion,frameRate,expStart,
15,35,13,0,0,0,l,1.0312345999991521,None,0,0,0,1,0.10443349997512996,,0.09744579996913671,0.10443349997512996,1.0027642999775708,1.0027642999775708,1.103274599998258,2.041446699993685,l,1.0312345999991521,None,,Participant 4,001,2024-11-19_17h10.03.639,Delay dfiscounting,2024.2.4,60.50089903999281,2024-11-19 17h10.16.727877 +0530,
11,30,7,1,1,0,l,0.6525177000439726,None,0,1,1,0,2.052313099964522,,2.046383999986574,2.052313099964522,3.0531339999870397,3.0531339999870397,3.0531339999870397,3.7200255999923684,l,0.6525177000439726,None,,Participant 4,001,2024-11-19_17h10.03.639,Delay dfiscounting,2024.2.4,60.50089903999281,2024-11-19 17h10.16.727877 +0530,
67,75,119,2,2,0,t,0.5947955999872647,None,0,2,2,5,3.7350831999792717,,3.7247513000038452,3.7350831999792717,4.735119299963117,4.735119299963117,4.735119299963117,5.335686600010376,t,0.5947955999872647,None,,Participant 4,001,2024-11-19_17h10.03.639,Delay dfiscounting,2024.2.4,60.50089903999281,2024-11-19 17h10.16.727877 +0530,
49,60,89,3,3,0,t,0.8246311999973841,None,0,3,3,4,5.350602599966805,,5.340552099980414,5.350602599966805,6.352351600013208,6.352351600013208,6.352351600013208,7.185325699974783,t,0.8246311999973841,None,,Participant 4,001,2024-11-19_17h10.03.639,Delay dfiscounting,2024.2.4,60.50089903999281,2024-11-19 17h10.16.727877 +0530,
40,55,62,4,4,0,t,0.4515468000317924,None,0,4,4,3,7.200000200013164,,7.19096159999026,7.200000200013164,8.200940800015815,8.200940800015815,8.200940800015815,8.66762339998968,t,0.4515468000317924,None,,Participant 4,001,2024-11-19_17h10.03.639,Delay dfiscounting,2024.2.4,60.50089903999281,2024-11-19 17h10.16.727877 +0530,
78,80,162,5,5,0,t,0.39802560000680387,None,0,5,5,6,8.682860100001562,,8.671220299962442,8.682860100001562,9.683004099992104,9.683004099992104,9.683004099992104,10.083951200009324,t,0.39802560000680387,None,,Participant 4,001,2024-11-19_17h10.03.639,Delay dfiscounting,2024.2.4,60.50089903999281,2024-11-19 17h10.16.727877 +0530,
27,50,21,6,6,0,t,0.7584036000189371,None,0,6,6,2,10.098811200005002,,10.087551400007214,10.098811200005002,11.099038999993354,11.099038999993354,11.099038999993354,11.866001499991398,t,0.7584036000189371,None,,Participant 4,001,2024-11-19_17h10.03.639,Delay dfiscounting,2024.2.4,60.50089903999281,2024-11-19 17h10.16.727877 +0530,
78,80,162,7,0,1,t,0.44291769998380914,None,1,0,7,6,11.881532099971082,,11.86940650001634,11.881532099971082,12.881556199979968,12.881556199979968,12.881556199979968,13.333113499975298,t,0.44291769998380914,None,,Participant 4,001,2024-11-19_17h10.03.639,Delay dfiscounting,2024.2.4,60.50089903999281,2024-11-19 17h10.16.727877 +0530,
11,30,7,8,1,1,l,0.38395410001976416,None,1,1,8,0,13.347112799994648,,13.336250099993777,13.347112799994648,14.347630799980834,14.347630799980834,14.347630799980834,14.748762600007467,l,0.38395410001976416,None,,Participant 4,001,2024-11-19_17h10.03.639,Delay dfiscounting,2024.2.4,60.50089903999281,2024-11-19 17h10.16.727877 +0530,
49,60,89,9,2,1,t,0.4516398999840021,None,1,2,9,4,14.76360249996651,,14.75203789997613,14.76360249996651,15.764309599995613,15.764309599995613,15.764309599995613,16.230984399968293,t,0.4516398999840021,None,,Participant 4,001,2024-11-19_17h10.03.639,Delay dfiscounting,2024.2.4,60.50089903999281,2024-11-19 17h10.16.727877 +0530,
15,35,13,10,3,1,t,0.4038719999953173,None,1,3,10,1,16.245958400017116,,16.23406009998871,16.245958400017116,17.229459399997722,17.229459399997722,17.246640099969227,17.647566300001927,t,0.4038719999953173,None,,Participant 4,001,2024-11-19_17h10.03.639,Delay dfiscounting,2024.2.4,60.50089903999281,2024-11-19 17h10.16.727877 +0530,
40,55,62,11,4,1,t,0.4325378999928944,None,1,4,11,3,17.662215999967884,,17.650872199970763,17.662215999967884,18.662180399987847,18.662180399987847,18.662180399987847,19.096985800017137,t,0.4325378999928944,None,,Participant 4,001,2024-11-19_17h10.03.639,Delay dfiscounting,2024.2.4,60.50089903999281,2024-11-19 17h10.16.727877 +0530,
27,50,21,12,5,1,t,0.9803881999687292,None,1,5,12,2,19.11155289999442,,19.100499399995897,19.11155289999442,20.11178999999538,20.11178999999538,20.11178999999538,21.095247099990956,t,0.9803881999687292,None,,Participant 4,001,2024-11-19_17h10.03.639,Delay dfiscounting,2024.2.4,60.50089903999281,2024-11-19 17h10.16.727877 +0530,
67,75,119,13,6,1,t,0.3595325000351295,None,1,6,13,5,21.110865299997386,,21.09805689996574,21.110865299997386,22.0944451999967,22.0944451999967,22.111038699978963,22.461674799968023,t,0.3595325000351295,None,,Participant 4,001,2024-11-19_17h10.03.639,Delay dfiscounting,2024.2.4,60.50089903999281,2024-11-19 17h10.16.727877 +0530,
15,35,13,14,0,2,l,0.40464439999777824,None,2,0,14,1,22.476739300007466,,22.46471339999698,22.476739300007466,23.460773499973584,23.460773499973584,23.477679300005548,23.878194299992174,l,0.40464439999777824,None,,Participant 4,001,2024-11-19_17h10.03.639,Delay dfiscounting,2024.2.4,60.50089903999281,2024-11-19 17h10.16.727877 +0530,
40,55,62,15,1,2,t,0.382716900028754,None,2,1,15,3,23.892571999982465,,23.88187179999659,23.892571999982465,24.89329589996487,24.89329589996487,24.89329589996487,25.27742830000352,t,0.382716900028754,None,,Participant 4,001,2024-11-19_17h10.03.639,Delay dfiscounting,2024.2.4,60.50089903999281,2024-11-19 17h10.16.727877 +0530,
49,60,89,16,2,2,t,0.4088770999806002,None,2,2,16,4,25.292130100016948,,25.280464500014205,25.292130100016948,26.29232279997086,26.29232279997086,26.29232279997086,26.70965979999164,t,0.4088770999806002,None,,Participant 4,001,2024-11-19_17h10.03.639,Delay dfiscounting,2024.2.4,60.50089903999281,2024-11-19 17h10.16.727877 +0530,
27,50,21,17,3,2,t,1.092608300037682,None,2,3,17,2,26.724686899979133,,26.71321379998699,26.724686899979133,27.708300600002985,27.708300600002985,27.725006399967242,28.808722299989313,t,1.092608300037682,None,,Participant 4,001,2024-11-19_17h10.03.639,Delay dfiscounting,2024.2.4,60.50089903999281,2024-11-19 17h10.16.727877 +0530,
11,30,7,18,4,2,l,0.4697256000363268,None,2,4,18,0,28.823833099973854,,28.81190400000196,28.823833099973854,29.80758959997911,29.80758959997911,29.824048299982678,30.291909299965482,l,0.4697256000363268,None,,Participant 4,001,2024-11-19_17h10.03.639,Delay dfiscounting,2024.2.4,60.50089903999281,2024-11-19 17h10.16.727877 +0530,
67,75,119,19,5,2,t,0.365926300000865,None,2,5,19,5,30.30651869997382,,30.295049600012135,30.30651869997382,31.307139899989124,31.307139899989124,31.307139899989124,31.67459820001386,t,0.365926300000865,None,,Participant 4,001,2024-11-19_17h10.03.639,Delay dfiscounting,2024.2.4,60.50089903999281,2024-11-19 17h10.16.727877 +0530,
78,80,162,20,6,2,t,0.4105787000153214,None,2,6,20,6,31.68921370001044,,31.677932299964596,31.68921370001044,32.68982630001847,32.68982630001847,32.68982630001847,33.1072356000077,t,0.4105787000153214,None,,Participant 4,001,2024-11-19_17h10.03.639,Delay dfiscounting,2024.2.4,60.50089903999281,2024-11-19 17h10.16.727877 +0530,
27,50,21,21,0,3,t,0.552959099994041,None,3,0,21,2,33.12212089996319,,33.11067490000278,33.12212089996319,34.12250329996459,34.12250329996459,34.12250329996459,34.68949650001014,t,0.552959099994041,None,,Participant 4,001,2024-11-19_17h10.03.639,Delay dfiscounting,2024.2.4,60.50089903999281,2024-11-19 17h10.16.727877 +0530,
49,60,89,22,1,3,t,1.1906612000311725,None,3,1,22,4,34.70455460000085,,34.69252809998579,34.70455460000085,35.688566499971785,35.688566499971785,35.704855799966026,36.88855069997953,t,1.1906612000311725,None,,Participant 4,001,2024-11-19_17h10.03.639,Delay dfiscounting,2024.2.4,60.50089903999281,2024-11-19 17h10.16.727877 +0530,
15,35,13,23,2,3,l,0.5837776000262238,None,3,2,23,1,36.9036634999793,,36.89180559996748,36.9036634999793,37.90379589999793,37.90379589999793,37.90379589999793,38.48948940000264,l,0.5837776000262238,None,,Participant 4,001,2024-11-19_17h10.03.639,Delay dfiscounting,2024.2.4,60.50089903999281,2024-11-19 17h10.16.727877 +0530,
67,75,119,24,3,3,t,0.23794010002166033,None,3,3,24,5,38.503169299976435,,38.49272959999507,38.503169299976435,39.50416710000718,39.50416710000718,39.50416710000718,39.75366429996211,t,0.23794010002166033,None,,Participant 4,001,2024-11-19_17h10.03.639,Delay dfiscounting,2024.2.4,60.50089903999281,2024-11-19 17h10.16.727877 +0530,
78,80,162,25,4,3,t,0.2856853000121191,None,3,4,25,6,39.769280900014564,,39.7573454999947,39.769280900014564,40.768804599996656,40.768804599996656,40.768804599996656,41.06931160000386,t,0.2856853000121191,None,,Participant 4,001,2024-11-19_17h10.03.639,Delay dfiscounting,2024.2.4,60.50089903999281,2024-11-19 17h10.16.727877 +0530,
11,30,7,26,5,3,l,0.5303321999963373,None,3,5,26,0,41.085183200018946,,41.07370219996665,41.085183200018946,42.06816490000347,42.06816490000347,42.08487789996434,42.6026079999865,l,0.5303321999963373,None,,Participant 4,001,2024-11-19_17h10.03.639,Delay dfiscounting,2024.2.4,60.50089903999281,2024-11-19 17h10.16.727877 +0530,
40,55,62,27,6,3,t,0.5536659000208601,None,3,6,27,3,42.61789359996328,,42.60840319999261,42.61789359996328,43.61754840001231,43.61754840001231,43.61754840001231,44.18513120000716,t,0.5536659000208601,None,,Participant 4,001,2024-11-19_17h10.03.639,Delay dfiscounting,2024.2.4,60.50089903999281,2024-11-19 17h10.16.727877 +0530,
27,50,21,28,0,4,t,0.4547905999934301,None,4,0,28,2,44.20049079996534,,44.19056359998649,44.20049079996534,45.2004613999743,45.2004613999743,45.2004613999743,45.66753550001886,t,0.4547905999934301,None,,Participant 4,001,2024-11-19_17h10.03.639,Delay dfiscounting,2024.2.4,60.50089903999281,2024-11-19 17h10.16.727877 +0530,
15,35,13,29,1,4,l,0.4226392999989912,None,4,1,29,1,45.68323700001929,,45.670630000007804,45.68323700001929,46.666347299993504,46.666347299993504,46.6830185999861,47.10027809999883,l,0.4226392999989912,None,,Participant 4,001,2024-11-19_17h10.03.639,Delay dfiscounting,2024.2.4,60.50089903999281,2024-11-19 17h10.16.727877 +0530,
67,75,119,30,2,4,t,0.37622850004117936,None,4,2,30,5,47.11604419996729,,47.103496700001415,47.11604419996729,48.1158922999748,48.1158922999748,48.1158922999748,48.500302299973555,t,0.37622850004117936,None,,Participant 4,001,2024-11-19_17h10.03.639,Delay dfiscounting,2024.2.4,60.50089903999281,2024-11-19 17h10.16.727877 +0530,
40,55,62,31,3,4,t,0.40135899995220825,None,4,3,31,3,48.515360399964266,,48.50380959996255,48.515360399964266,49.514922000002116,49.514922000002116,49.514922000002116,49.9327855000156,t,0.40135899995220825,None,,Participant 4,001,2024-11-19_17h10.03.639,Delay dfiscounting,2024.2.4,60.50089903999281,2024-11-19 17h10.16.727877 +0530,
49,60,89,32,4,4,t,0.4234559999895282,None,4,4,32,4,49.94826579996152,,49.936553000006825,49.94826579996152,50.947523700015154,50.947523700015154,50.947523700015154,51.38194619998103,t,0.4234559999895282,None,,Participant 4,001,2024-11-19_17h10.03.639,Delay dfiscounting,2024.2.4,60.50089903999281,2024-11-19 17h10.16.727877 +0530,
78,80,162,33,5,4,t,0.4440848000231199,None,4,5,33,6,51.397737799969036,,51.38551860000007,51.397737799969036,52.39700429997174,52.39700429997174,52.39700429997174,52.84786959999474,t,0.4440848000231199,None,,Participant 4,001,2024-11-19_17h10.03.639,Delay dfiscounting,2024.2.4,60.50089903999281,2024-11-19 17h10.16.727877 +0530,
11,30,7,34,6,4,l,0.5406988000031561,None,4,6,34,0,52.8634515000158,,52.85116189997643,52.8634515000158,53.86292929999763,53.86292929999763,53.86292929999763,54.41392799996538,l,0.5406988000031561,None,,Participant 4,001,2024-11-19_17h10.03.639,Delay dfiscounting,2024.2.4,60.50089903999281,2024-11-19 17h10.16.727877 +0530,
67,75,119,35,0,5,l,0.3791499999933876,None,5,0,35,5,54.42961930000456,,54.41683080000803,54.42961930000456,55.42917000001762,55.42917000001762,55.42917000001762,55.81322429998545,l,0.3791499999933876,None,,Participant 4,001,2024-11-19_17h10.03.639,Delay dfiscounting,2024.2.4,60.50089903999281,2024-11-19 17h10.16.727877 +0530,
11,30,7,36,1,5,l,0.5851446999586187,None,5,1,36,0,55.8290823000134,,55.816956700000446,55.8290823000134,56.82862679997925,56.82862679997925,56.82862679997925,57.42952309997054,l,0.5851446999586187,None,,Participant 4,001,2024-11-19_17h10.03.639,Delay dfiscounting,2024.2.4,60.50089903999281,2024-11-19 17h10.16.727877 +0530,
15,35,13,37,2,5,l,0.825603700010106,None,5,2,37,1,57.44508490001317,,57.43269119999604,57.44508490001317,58.44427849998465,58.44427849998465,58.44427849998465,59.27826200000709,l,0.825603700010106,None,,Participant 4,001,2024-11-19_17h10.03.639,Delay dfiscounting,2024.2.4,60.50089903999281,2024-11-19 17h10.16.727877 +0530,
78,80,162,38,3,5,t,0.36064089997671545,None,5,3,38,6,59.29391670000041,,59.282148899976164,59.29391670000041,60.29364489996806,60.29364489996806,60.29364489996806,60.6611688999692,t,0.36064089997671545,None,,Participant 4,001,2024-11-19_17h10.03.639,Delay dfiscounting,2024.2.4,60.50089903999281,2024-11-19 17h10.16.727877 +0530,
40,55,62,39,4,5,t,0.36200449999887496,None,5,4,39,3,60.67676289996598,,60.66633219999494,60.67676289996598,61.67629199998919,61.67629199998919,61.67629199998919,62.044010999961756,t,0.36200449999887496,None,,Participant 4,001,2024-11-19_17h10.03.639,Delay dfiscounting,2024.2.4,60.50089903999281,2024-11-19 17h10.16.727877 +0530,
27,50,21,40,5,5,t,0.5639678000006825,None,5,5,40,2,62.0595261999988,,62.04797109996434,62.0595261999988,63.05917999998201,63.05917999998201,63.05917999998201,63.62649930000771,t,0.5639678000006825,None,,Participant 4,001,2024-11-19_17h10.03.639,Delay dfiscounting,2024.2.4,60.50089903999281,2024-11-19 17h10.16.727877 +0530,
49,60,89,41,6,5,t,0.3313281000009738,None,5,6,41,4,63.64203990000533,,63.62968259997433,63.64203990000533,64.64168719999725,64.64168719999725,64.64168719999725,64.97564939997392,t,0.3313281000009738,None,,Participant 4,001,2024-11-19_17h10.03.639,Delay dfiscounting,2024.2.4,60.50089903999281,2024-11-19 17h10.16.727877 +0530,
67,75,119,42,0,6,t,0.4012649000505917,None,6,0,42,5,64.99152559996583,,64.97880430001533,64.99152559996583,65.99104260001332,65.99104260001332,65.99104260001332,66.40883739996934,t,0.4012649000505917,None,,Participant 4,001,2024-11-19_17h10.03.639,Delay dfiscounting,2024.2.4,60.50089903999281,2024-11-19 17h10.16.727877 +0530,
11,30,7,43,1,6,l,0.4201085999957286,None,6,1,43,0,66.42433880001772,,66.41188239998883,66.42433880001772,67.40854709997075,67.40854709997075,67.42431199998828,67.84117339999648,l,0.4201085999957286,None,,Participant 4,001,2024-11-19_17h10.03.639,Delay dfiscounting,2024.2.4,60.50089903999281,2024-11-19 17h10.16.727877 +0530,
49,60,89,44,2,6,t,0.40248160000192,None,6,2,44,4,67.8572691999725,,67.84530260000611,67.8572691999725,68.84029269998427,68.84029269998427,68.85686880000867,69.25805579998996,t,0.40248160000192,None,,Participant 4,001,2024-11-19_17h10.03.639,Delay dfiscounting,2024.2.4,60.50089903999281,2024-11-19 17h10.16.727877 +0530,
27,50,21,45,3,6,t,0.411058499943465,None,6,3,45,2,69.2734964999836,,69.26350309996633,69.2734964999836,70.27271729998756,70.27271729998756,70.27271729998756,70.69020449998789,t,0.411058499943465,None,,Participant 4,001,2024-11-19_17h10.03.639,Delay dfiscounting,2024.2.4,60.50089903999281,2024-11-19 17h10.16.727877 +0530,
40,55,62,46,4,6,t,0.3525952000054531,None,6,4,46,3,70.705947200011,,70.69396180001786,70.705947200011,71.70534919999773,71.70534919999773,71.70534919999773,72.07277550001163,t,0.3525952000054531,None,,Participant 4,001,2024-11-19_17h10.03.639,Delay dfiscounting,2024.2.4,60.50089903999281,2024-11-19 17h10.16.727877 +0530,
15,35,13,47,5,6,l,0.45952509995549917,None,6,5,47,1,72.08879359997809,,72.07584180001868,72.08879359997809,73.0883953999728,73.0883953999728,73.0883953999728,73.55563929997152,l,0.45952509995549917,None,,Participant 4,001,2024-11-19_17h10.03.639,Delay dfiscounting,2024.2.4,60.50089903999281,2024-11-19 17h10.16.727877 +0530,
78,80,162,48,6,6,t,0.39545529999304563,None,6,6,48,6,73.57111989997793,,73.55933610000648,73.57111989997793,74.57079849997535,74.57079849997535,74.57079849997535,74.97183759999461,t,0.39545529999304563,None,,Participant 4,001,2024-11-19_17h10.03.639,Delay dfiscounting,2024.2.4,60.50089903999281,2024-11-19 17h10.16.727877 +0530,
67,75,119,49,0,7,t,0.37015509995399043,None,7,0,49,5,74.98730569996405,,74.97480319999158,74.98730569996405,75.98673800000688,75.98673800000688,75.98673800000688,76.37086630001431,t,0.37015509995399043,None,,Participant 4,001,2024-11-19_17h10.03.639,Delay dfiscounting,2024.2.4,60.50089903999281,2024-11-19 17h10.16.727877 +0530,
40,55,62,50,1,7,t,0.35266249999403954,None,7,1,50,3,76.38682149996748,,76.37444799998775,76.38682149996748,77.38612509996165,77.38612509996165,77.38612509996165,77.75345979997655,t,0.35266249999403954,None,,Participant 4,001,2024-11-19_17h10.03.639,Delay dfiscounting,2024.2.4,60.50089903999281,2024-11-19 17h10.16.727877 +0530,
49,60,89,51,2,7,t,0.40436280000722036,None,7,2,51,4,77.7692808000138,,77.75694669998484,77.7692808000138,78.7693341000122,78.7693341000122,78.7693341000122,79.18679329997394,t,0.40436280000722036,None,,Participant 4,001,2024-11-19_17h10.03.639,Delay dfiscounting,2024.2.4,60.50089903999281,2024-11-19 17h10.16.727877 +0530,
11,30,7,52,3,7,l,0.46633580001071095,None,7,3,52,0,79.20248679997167,,79.19023179996293,79.20248679997167,80.20188599999528,80.20188599999528,80.20188599999528,80.66991900000721,l,0.46633580001071095,None,,Participant 4,001,2024-11-19_17h10.03.639,Delay dfiscounting,2024.2.4,60.50089903999281,2024-11-19 17h10.16.727877 +0530,
27,50,21,53,4,7,t,0.5124277999857441,None,7,4,53,2,80.68490150000434,,80.6736676999717,80.68490150000434,81.68495349999284,81.68495349999284,81.68495349999284,82.2015477999812,t,0.5124277999857441,None,,Participant 4,001,2024-11-19_17h10.03.639,Delay dfiscounting,2024.2.4,60.50089903999281,2024-11-19 17h10.16.727877 +0530,
15,35,13,54,5,7,l,0.5301556999911554,None,7,5,54,1,82.21740429999772,,82.20502190000843,82.21740429999772,83.21782369998982,83.21782369998982,83.21782369998982,83.75142019998748,l,0.5301556999911554,None,,Participant 4,001,2024-11-19_17h10.03.639,Delay dfiscounting,2024.2.4,60.50089903999281,2024-11-19 17h10.16.727877 +0530,
78,80,162,55,6,7,t,0.5323441000073217,None,7,6,55,6,83.7667422000086,,83.75489240000024,83.7667422000086,84.76758970000083,84.76758970000083,84.76758970000083,85.30138209997676,t,0.5323441000073217,None,,Participant 4,001,2024-11-19_17h10.03.639,Delay dfiscounting,2024.2.4,60.50089903999281,2024-11-19 17h10.16.727877 +0530,
40,55,62,56,0,8,t,0.5793087999918498,None,8,0,56,3,85.3164266999811,,85.30507060000673,85.3164266999811,86.3160530999885,86.3160530999885,86.3160530999885,86.9002654000069,t,0.5793087999918498,None,,Participant 4,001,2024-11-19_17h10.03.639,Delay dfiscounting,2024.2.4,60.50089903999281,2024-11-19 17h10.16.727877 +0530,
49,60,89,57,1,8,t,0.3573743000160903,None,8,1,57,4,86.91563229996245,,86.90363570000045,86.91563229996245,87.91518259997247,87.91518259997247,87.91518259997247,88.28237059997628,t,0.3573743000160903,None,,Participant 4,001,2024-11-19_17h10.03.639,Delay dfiscounting,2024.2.4,60.50089903999281,2024-11-19 17h10.16.727877 +0530,
15,35,13,58,2,8,l,0.5048700000043027,None,8,2,58,1,88.29814759996952,,88.28589150001062,88.29814759996952,89.28161309997085,89.28161309997085,89.29824199998984,89.79865959996823,l,0.5048700000043027,None,,Participant 4,001,2024-11-19_17h10.03.639,Delay dfiscounting,2024.2.4,60.50089903999281,2024-11-19 17h10.16.727877 +0530,
11,30,7,59,3,8,l,0.45876279997173697,None,8,3,59,0,89.81446680001682,,89.8017268999829,89.81446680001682,90.79729859996587,90.79729859996587,90.81612259999383,91.26495019998401,l,0.45876279997173697,None,,Participant 4,001,2024-11-19_17h10.03.639,Delay dfiscounting,2024.2.4,60.50089903999281,2024-11-19 17h10.16.727877 +0530,
78,80,162,60,4,8,t,0.41521050001028925,None,8,4,60,6,91.28036619996419,,91.26876399997855,91.28036619996419,92.28023589996155,92.28023589996155,92.28023589996155,92.69793039996875,t,0.41521050001028925,None,,Participant 4,001,2024-11-19_17h10.03.639,Delay dfiscounting,2024.2.4,60.50089903999281,2024-11-19 17h10.16.727877 +0530,
27,50,21,61,5,8,t,0.5061052000382915,None,8,5,61,2,92.71314100001473,,92.70128089998616,92.71314100001473,93.7134271999821,93.7134271999821,93.7134271999821,94.23003559996141,t,0.5061052000382915,None,,Participant 4,001,2024-11-19_17h10.03.639,Delay dfiscounting,2024.2.4,60.50089903999281,2024-11-19 17h10.16.727877 +0530,
67,75,119,62,6,8,t,0.5123397000133991,None,8,6,62,5,94.2457850999781,,94.23360999999568,94.2457850999781,95.24557590001496,95.24557590001496,95.24557590001496,95.76331309997477,t,0.5123397000133991,None,,Participant 4,001,2024-11-19_17h10.03.639,Delay dfiscounting,2024.2.4,60.50089903999281,2024-11-19 17h10.16.727877 +0530,
27,50,21,63,0,9,t,1.1862213999847881,None,9,0,63,2,95.77872309996746,,95.7669457999873,95.77872309996746,96.77810019999743,96.77810019999743,96.77810019999743,97.97879570000805,t,1.1862213999847881,None,,Participant 4,001,2024-11-19_17h10.03.639,Delay dfiscounting,2024.2.4,60.50089903999281,2024-11-19 17h10.16.727877 +0530,
40,55,62,64,1,9,t,0.8561258999980055,None,9,1,64,3,97.99427630001446,,97.98263210000005,97.99427630001446,98.99351619998924,98.99351619998924,98.99351619998924,99.86071450001327,t,0.8561258999980055,None,,Participant 4,001,2024-11-19_17h10.03.639,Delay dfiscounting,2024.2.4,60.50089903999281,2024-11-19 17h10.16.727877 +0530,
49,60,89,65,2,9,t,0.7318079000106081,None,9,2,65,4,99.87644580000779,,99.8638894999749,99.87644580000779,100.87619519996224,100.87619519996224,100.87619519996224,101.60997009999119,t,0.7318079000106081,None,,Participant 4,001,2024-11-19_17h10.03.639,Delay dfiscounting,2024.2.4,60.50089903999281,2024-11-19 17h10.16.727877 +0530,
67,75,119,66,3,9,t,0.3985425000428222,None,9,3,66,5,101.62606589996722,,101.61385139997583,101.62606589996722,102.62545739999041,102.62545739999041,102.62545739999041,103.02624059998197,t,0.3985425000428222,None,,Participant 4,001,2024-11-19_17h10.03.639,Delay dfiscounting,2024.2.4,60.50089903999281,2024-11-19 17h10.16.727877 +0530,
11,30,7,67,4,9,l,0.39993529999628663,None,9,4,67,0,103.04173950001132,,103.03151970001636,103.04173950001132,104.04150789999403,104.04150789999403,104.04150789999403,104.44297139998525,l,0.39993529999628663,None,,Participant 4,001,2024-11-19_17h10.03.639,Delay dfiscounting,2024.2.4,60.50089903999281,2024-11-19 17h10.16.727877 +0530,
78,80,162,68,5,9,t,0.3591917000012472,None,9,5,68,6,104.45781659998465,,104.44677089998731,104.45781659998465,105.45766229997389,105.45766229997389,105.45766229997389,105.82473920000484,t,0.3591917000012472,None,,Participant 4,001,2024-11-19_17h10.03.639,Delay dfiscounting,2024.2.4,60.50089903999281,2024-11-19 17h10.16.727877 +0530,
15,35,13,69,6,9,l,0.5287641999893822,None,9,6,69,1,105.8407660999801,,105.82773530000122,105.8407660999801,106.84054379997542,106.84054379997542,106.84054379997542,107.37466119998135,l,0.5287641999893822,None,,Participant 4,001,2024-11-19_17h10.03.639,Delay dfiscounting,2024.2.4,60.50089903999281,2024-11-19 17h10.16.727877 +0530,
40,55,62,70,0,10,t,0.5174926999607123,None,10,0,70,3,107.39000050001778,,107.37838939996436,107.39000050001778,108.38939550000941,108.38939550000941,108.38939550000941,108.92346349998843,t,0.5174926999607123,None,,Participant 4,001,2024-11-19_17h10.03.639,Delay dfiscounting,2024.2.4,60.50089903999281,2024-11-19 17h10.16.727877 +0530,
15,35,13,71,1,10,l,0.4802377999876626,None,10,1,71,1,108.93975889997091,,108.9264308999991,108.93975889997091,109.92258499999298,109.92258499999298,109.93885739997495,110.40653249999741,l,0.4802377999876626,None,,Participant 4,001,2024-11-19_17h10.03.639,Delay dfiscounting,2024.2.4,60.50089903999281,2024-11-19 17h10.16.727877 +0530,
49,60,89,72,2,10,t,0.43695619999198243,None,10,2,72,4,110.42221380001865,,110.41023709997535,110.42221380001865,111.42193780001253,111.42193780001253,111.42193780001253,111.87204280000878,t,0.43695619999198243,None,,Participant 4,001,2024-11-19_17h10.03.639,Delay dfiscounting,2024.2.4,60.50089903999281,2024-11-19 17h10.16.727877 +0530,
11,30,7,73,3,10,l,0.4576887000002898,None,10,3,73,0,111.88827970001148,,111.8750643999665,111.88827970001148,112.87194929999532,112.87194929999532,112.88796169997659,113.33876780001447,l,0.4576887000002898,None,,Participant 4,001,2024-11-19_17h10.03.639,Delay dfiscounting,2024.2.4,60.50089903999281,2024-11-19 17h10.16.727877 +0530,
67,75,119,74,4,10,t,0.4576091000344604,None,10,4,74,5,113.35421700001461,,113.34218540001893,113.35421700001461,114.35368130001007,114.35368130001007,114.35368130001007,114.82139589998405,t,0.4576091000344604,None,,Participant 4,001,2024-11-19_17h10.03.639,Delay dfiscounting,2024.2.4,60.50089903999281,2024-11-19 17h10.16.727877 +0530,
27,50,21,75,5,10,t,0.5846808000351302,None,10,5,75,2,114.836791299982,,114.82486729999073,114.836791299982,115.83716990001267,115.83716990001267,115.83716990001267,116.43672870000592,t,0.5846808000351302,None,,Participant 4,001,2024-11-19_17h10.03.639,Delay dfiscounting,2024.2.4,60.50089903999281,2024-11-19 17h10.16.727877 +0530,
78,80,162,76,6,10,t,0.39384889998473227,None,10,6,76,6,116.45263309997972,,116.44029379996937,116.45263309997972,117.45215049997205,117.45215049997205,117.45215049997205,117.85295679996489,t,0.39384889998473227,None,,Participant 4,001,2024-11-19_17h10.03.639,Delay dfiscounting,2024.2.4,60.50089903999281,2024-11-19 17h10.16.727877 +0530,
67,75,119,77,0,11,t,0.4243727999855764,None,11,0,77,5,117.86892869998701,,117.85577899997588,117.86892869998701,118.86838150001131,118.86838150001131,118.86838150001131,119.30228539998643,t,0.4243727999855764,None,,Participant 4,001,2024-11-19_17h10.03.639,Delay dfiscounting,2024.2.4,60.50089903999281,2024-11-19 17h10.16.727877 +0530,
15,35,13,78,1,11,l,0.6281596000189893,None,11,1,78,1,119.31799949996639,,119.30580550001469,119.31799949996639,120.31768049998209,120.31768049998209,120.31768049998209,120.95272739999928,l,0.6281596000189893,None,,Participant 4,001,2024-11-19_17h10.03.639,Delay dfiscounting,2024.2.4,60.50089903999281,2024-11-19 17h10.16.727877 +0530,
78,80,162,79,2,11,t,0.6229736999957822,None,11,2,79,6,120.9675921999733,,120.95600140001625,120.9675921999733,121.967567100015,121.967567100015,121.967567100015,122.60129179997602,t,0.6229736999957822,None,,Participant 4,001,2024-11-19_17h10.03.639,Delay dfiscounting,2024.2.4,60.50089903999281,2024-11-19 17h10.16.727877 +0530,
40,55,62,80,3,11,t,0.48845379997510463,None,11,3,80,3,122.6167623999645,,122.60516159998951,122.6167623999645,123.61616819998017,123.61616819998017,123.61616819998017,124.11784909997368,t,0.48845379997510463,None,,Participant 4,001,2024-11-19_17h10.03.639,Delay dfiscounting,2024.2.4,60.50089903999281,2024-11-19 17h10.16.727877 +0530,
11,30,7,81,4,11,l,0.522437000006903,None,11,4,81,0,124.13288360001752,,124.12090599996736,124.13288360001752,125.13243359996704,125.13243359996704,125.13243359996704,125.66616520000389,l,0.522437000006903,None,,Participant 4,001,2024-11-19_17h10.03.639,Delay dfiscounting,2024.2.4,60.50089903999281,2024-11-19 17h10.16.727877 +0530,
27,50,21,82,5,11,t,0.5569068000186235,None,11,5,82,2,125.6822475999943,,125.66997079999419,125.6822475999943,126.68187949998537,126.68187949998537,126.68187949998537,127.24943029996939,t,0.5569068000186235,None,,Participant 4,001,2024-11-19_17h10.03.639,Delay dfiscounting,2024.2.4,60.50089903999281,2024-11-19 17h10.16.727877 +0530,
49,60,89,83,6,11,t,0.39037809998262674,None,11,6,83,4,127.26464919996215,,127.25262789998669,127.26464919996215,128.26433609996457,128.26433609996457,128.26433609996457,128.66526569996495,t,0.39037809998262674,None,,Participant 4,001,2024-11-19_17h10.03.639,Delay dfiscounting,2024.2.4,60.50089903999281,2024-11-19 17h10.16.727877 +0530,
40,55,62,84,0,12,t,0.4035662999958731,None,12,0,84,3,128.68083939998178,,128.66878489998635,128.68083939998178,129.68030880001606,129.68030880001606,129.68030880001606,130.0980507999775,t,0.4035662999958731,None,,Participant 4,001,2024-11-19_17h10.03.639,Delay dfiscounting,2024.2.4,60.50089903999281,2024-11-19 17h10.16.727877 +0530,
49,60,89,85,1,12,t,0.4606123000266962,None,12,1,85,4,130.11362979997648,,130.1010903000133,130.11362979997648,131.11301550001372,131.11301550001372,131.11301550001372,131.58135230001062,t,0.4606123000266962,None,,Participant 4,001,2024-11-19_17h10.03.639,Delay dfiscounting,2024.2.4,60.50089903999281,2024-11-19 17h10.16.727877 +0530,
11,30,7,86,2,12,l,0.8715329000260681,None,12,2,86,0,131.59604480001144,,131.58536109997658,131.59604480001144,132.59599840000737,132.59599840000737,132.59599840000737,133.47965729999123,l,0.8715329000260681,None,,Participant 4,001,2024-11-19_17h10.03.639,Delay dfiscounting,2024.2.4,60.50089903999281,2024-11-19 17h10.16.727877 +0530,
67,75,119,87,3,12,t,0.5472776999813505,None,12,3,87,5,133.49531789997127,,133.4827021000092,133.49531789997127,134.4947992999805,134.4947992999805,134.4947992999805,135.04547640000237,t,0.5472776999813505,None,,Participant 4,001,2024-11-19_17h10.03.639,Delay dfiscounting,2024.2.4,60.50089903999281,2024-11-19 17h10.16.727877 +0530,
15,35,13,88,4,12,l,0.9832377000129782,None,12,4,88,1,135.0614695000113,,135.04868160001934,135.0614695000113,136.04482469998766,136.04482469998766,136.06098969996674,137.04470470000524,l,0.9832377000129782,None,,Participant 4,001,2024-11-19_17h10.03.639,Delay dfiscounting,2024.2.4,60.50089903999281,2024-11-19 17h10.16.727877 +0530,
78,80,162,89,5,12,t,0.512300000002142,None,12,5,89,6,137.0603914000094,,137.04840420000255,137.0603914000094,138.06016180000734,138.06016180000734,138.06016180000734,138.57803380000405,t,0.512300000002142,None,,Participant 4,001,2024-11-19_17h10.03.639,Delay dfiscounting,2024.2.4,60.50089903999281,2024-11-19 17h10.16.727877 +0530,
27,50,21,90,6,12,l,1.5764701999723911,None,12,6,90,2,138.59361179999541,,138.5817750999704,138.59361179999541,139.5926014999859,139.5926014999859,139.5926014999859,141.1764994999976,l,1.5764701999723911,None,,Participant 4,001,2024-11-19_17h10.03.639,Delay dfiscounting,2024.2.4,60.50089903999281,2024-11-19 17h10.16.727877 +0530,
40,55,62,91,0,13,t,3.441510999982711,None,13,0,91,3,141.1920457999804,,141.17983149999054,141.1920457999804,142.19195820001187,142.19195820001187,142.19195820001187,145.64099220000207,t,3.441510999982711,None,144.2072252999642,Participant 4,001,2024-11-19_17h10.03.639,Delay dfiscounting,2024.2.4,60.50089903999281,2024-11-19 17h10.16.727877 +0530,
11,30,7,92,1,13,l,0.34532969997962937,None,13,1,92,0,145.65697889996227,,145.6443736999645,145.65697889996227,146.6404073999729,146.6404073999729,146.65713419998065,146.99076800001785,l,0.34532969997962937,None,,Participant 4,001,2024-11-19_17h10.03.639,Delay dfiscounting,2024.2.4,60.50089903999281,2024-11-19 17h10.16.727877 +0530,
78,80,162,93,2,13,t,0.43295789998956025,None,13,2,93,6,147.00626210001064,,146.99414919997798,147.00626210001064,148.00600559997838,148.00600559997838,148.00600559997838,148.4406835999689,t,0.43295789998956025,None,,Participant 4,001,2024-11-19_17h10.03.639,Delay dfiscounting,2024.2.4,60.50089903999281,2024-11-19 17h10.16.727877 +0530,
15,35,13,94,3,13,l,0.7485419000149705,None,13,3,94,1,148.45606459997362,,148.4439952999819,148.45606459997362,149.4553956000018,149.4553956000018,149.4553956000018,150.20587740000337,l,0.7485419000149705,None,,Participant 4,001,2024-11-19_17h10.03.639,Delay dfiscounting,2024.2.4,60.50089903999281,2024-11-19 17h10.16.727877 +0530,
49,60,89,95,4,13,t,0.5393984999973327,None,13,4,95,4,150.221592899994,,150.20889619999798,150.221592899994,151.22085250000237,151.22085250000237,151.22085250000237,151.77158200001577,t,0.5393984999973327,None,,Participant 4,001,2024-11-19_17h10.03.639,Delay dfiscounting,2024.2.4,60.50089903999281,2024-11-19 17h10.16.727877 +0530,
67,75,119,96,5,13,t,1.3132646000012755,None,13,5,96,5,151.78727269999217,,151.77651980001247,151.78727269999217,152.78723740001442,152.78723740001442,152.78723740001442,154.10473089996958,t,1.3132646000012755,None,,Participant 4,001,2024-11-19_17h10.03.639,Delay dfiscounting,2024.2.4,60.50089903999281,2024-11-19 17h10.16.727877 +0530,
27,50,21,97,6,13,l,0.5442258999682963,None,13,6,97,2,154.11996949999593,,154.10820560000138,154.11996949999593,155.11921749997418,155.11921749997418,155.11921749997418,155.6707735999953,l,0.5442258999682963,None,,Participant 4,001,2024-11-19_17h10.03.639,Delay dfiscounting,2024.2.4,60.50089903999281,2024-11-19 17h10.16.727877 +0530,
49,60,89,98,0,14,t,0.4261013999930583,None,14,0,98,4,155.68581290001748,,155.67415330000222,155.68581290001748,156.68519960000413,156.68519960000413,156.68519960000413,157.1194899000111,t,0.4261013999930583,None,,Participant 4,001,2024-11-19_17h10.03.639,Delay dfiscounting,2024.2.4,60.50089903999281,2024-11-19 17h10.16.727877 +0530,
27,50,21,99,1,14,t,0.6313123999862,None,14,1,99,2,157.13498989999061,,157.1229120999924,157.13498989999061,158.13459779997356,158.13459779997356,158.13459779997356,158.7685255999677,t,0.6313123999862,None,,Participant 4,001,2024-11-19_17h10.03.639,Delay dfiscounting,2024.2.4,60.50089903999281,2024-11-19 17h10.16.727877 +0530,
40,55,62,100,2,14,t,0.4317853000247851,None,14,2,100,3,158.7844785999623,,158.77238380000927,158.7844785999623,159.7842093000072,159.7842093000072,159.7842093000072,160.2179776999983,t,0.4317853000247851,None,,Participant 4,001,2024-11-19_17h10.03.639,Delay dfiscounting,2024.2.4,60.50089903999281,2024-11-19 17h10.16.727877 +0530,
78,80,162,101,3,14,t,0.4648404999752529,None,14,3,101,6,160.23413910000818,,160.22125379997306,160.23413910000818,161.2171384000103,161.2171384000103,161.23351039999397,161.6844504000037,t,0.4648404999752529,None,,Participant 4,001,2024-11-19_17h10.03.639,Delay dfiscounting,2024.2.4,60.50089903999281,2024-11-19 17h10.16.727877 +0530,
11,30,7,102,4,14,l,0.5852878000005148,None,14,4,102,0,161.7002727999934,,161.68779429997085,161.7002727999934,162.69970940001076,162.69970940001076,162.69970940001076,163.30033870000625,l,0.5852878000005148,None,,Participant 4,001,2024-11-19_17h10.03.639,Delay dfiscounting,2024.2.4,60.50089903999281,2024-11-19 17h10.16.727877 +0530,
15,35,13,103,5,14,l,0.5473283999599516,None,14,5,103,1,163.3161743999808,,163.30334819998825,163.3161743999808,164.31539090001024,164.31539090001024,164.31539090001024,164.86581200000364,l,0.5473283999599516,None,,Participant 4,001,2024-11-19_17h10.03.639,Delay dfiscounting,2024.2.4,60.50089903999281,2024-11-19 17h10.16.727877 +0530,
67,75,119,104,6,14,t,0.557218500005547,None,14,6,104,5,164.8816361000063,,164.86890269996366,164.8816361000063,165.86457239999436,165.86457239999436,165.88157929998124,166.4324023000081,t,0.557218500005547,None,,Participant 4,001,2024-11-19_17h10.03.639,Delay dfiscounting,2024.2.4,60.50089903999281,2024-11-19 17h10.16.727877 +0530,
40,55,62,105,0,15,t,0.4421343999565579,None,15,0,105,3,166.44796409999253,,166.43583339999896,166.44796409999253,167.44745639996836,167.44745639996836,167.44745639996836,167.89860469999257,t,0.4421343999565579,None,,Participant 4,001,2024-11-19_17h10.03.639,Delay dfiscounting,2024.2.4,60.50089903999281,2024-11-19 17h10.16.727877 +0530,
49,60,89,106,1,15,t,0.45800769998459145,None,15,1,106,4,167.9137625999865,,167.90201550000347,167.9137625999865,168.9133434999967,168.9133434999967,168.9133434999967,169.38105299999006,t,0.45800769998459145,None,,Participant 4,001,2024-11-19_17h10.03.639,Delay dfiscounting,2024.2.4,60.50089903999281,2024-11-19 17h10.16.727877 +0530,
78,80,162,107,2,15,t,0.44480250001652166,None,15,2,107,6,169.3967483000015,,169.3842178999912,169.3967483000015,170.3962703999714,170.3962703999714,170.3962703999714,170.84756349999225,t,0.44480250001652166,None,,Participant 4,001,2024-11-19_17h10.03.639,Delay dfiscounting,2024.2.4,60.50089903999281,2024-11-19 17h10.16.727877 +0530,
15,35,13,108,3,15,l,0.5539472000091337,None,15,3,108,1,170.86266059998889,,170.85130649997154,170.86266059998889,171.86287309997715,171.86287309997715,171.86287309997715,172.42958880000515,l,0.5539472000091337,None,,Participant 4,001,2024-11-19_17h10.03.639,Delay dfiscounting,2024.2.4,60.50089903999281,2024-11-19 17h10.16.727877 +0530,
67,75,119,109,4,15,t,0.4140170000027865,None,15,4,109,5,172.44550919998437,,172.43246579996776,172.44550919998437,173.44489499996416,173.44489499996416,173.44489499996416,173.86196670000209,t,0.4140170000027865,None,,Participant 4,001,2024-11-19_17h10.03.639,Delay dfiscounting,2024.2.4,60.50089903999281,2024-11-19 17h10.16.727877 +0530,
11,30,7,110,5,15,l,0.48988239996833727,None,15,5,110,0,173.87792780000018,,173.86558509996394,173.87792780000018,174.8782143999706,174.8782143999706,174.8782143999706,175.37860549998004,l,0.48988239996833727,None,,Participant 4,001,2024-11-19_17h10.03.639,Delay dfiscounting,2024.2.4,60.50089903999281,2024-11-19 17h10.16.727877 +0530,
27,50,21,111,6,15,l,0.6783221000223421,None,15,6,111,2,175.39483259996632,,175.3819904999691,175.39483259996632,176.39398130000336,176.39398130000336,176.4107662999886,177.07769959996222,l,0.6783221000223421,None,,Participant 4,001,2024-11-19_17h10.03.639,Delay dfiscounting,2024.2.4,60.50089903999281,2024-11-19 17h10.16.727877 +0530,
49,60,89,112,0,16,t,0.4032065999926999,None,16,0,112,4,177.09331279998878,,177.08126549998997,177.09331279998878,178.09323699999368,178.09323699999368,178.09323699999368,178.51003710000077,t,0.4032065999926999,None,,Participant 4,001,2024-11-19_17h10.03.639,Delay dfiscounting,2024.2.4,60.50089903999281,2024-11-19 17h10.16.727877 +0530,
15,35,13,113,1,16,l,0.618618999957107,None,16,1,113,1,178.52611019997858,,178.51300520001678,178.52611019997858,179.5256218999857,179.5256218999857,179.5256218999857,180.1593036999693,l,0.618618999957107,None,,Participant 4,001,2024-11-19_17h10.03.639,Delay dfiscounting,2024.2.4,60.50089903999281,2024-11-19 17h10.16.727877 +0530,
27,50,21,114,2,16,l,0.6448818999924697,None,16,2,114,2,180.17507280001882,,180.16345160000492,180.17507280001882,181.17547909996938,181.17547909996938,181.17547909996938,181.8254680999671,l,0.6448818999924697,None,,Participant 4,001,2024-11-19_17h10.03.639,Delay dfiscounting,2024.2.4,60.50089903999281,2024-11-19 17h10.16.727877 +0530,
67,75,119,115,3,16,t,0.2925445000291802,None,16,3,115,5,181.84106579999207,,181.8284341999679,181.84106579999207,182.84091709996574,182.84091709996574,182.84091709996574,183.14183259999845,t,0.2925445000291802,None,,Participant 4,001,2024-11-19_17h10.03.639,Delay dfiscounting,2024.2.4,60.50089903999281,2024-11-19 17h10.16.727877 +0530,
78,80,162,116,4,16,t,0.4875066999811679,None,16,4,116,6,183.15715859999182,,183.1453148999717,183.15715859999182,184.1566792000085,184.1566792000085,184.1566792000085,184.6573029999854,t,0.4875066999811679,None,,Participant 4,001,2024-11-19_17h10.03.639,Delay dfiscounting,2024.2.4,60.50089903999281,2024-11-19 17h10.16.727877 +0530,
40,55,62,117,5,16,t,0.6706761000095867,None,16,5,117,3,184.67329189996235,,184.6606182999676,184.67329189996235,185.67288859997643,185.67288859997643,185.67288859997643,186.3567694000085,t,0.6706761000095867,None,,Participant 4,001,2024-11-19_17h10.03.639,Delay dfiscounting,2024.2.4,60.50089903999281,2024-11-19 17h10.16.727877 +0530,
11,30,7,118,6,16,l,0.38243459997465834,None,16,6,118,0,186.37240439996822,,186.36009259999264,186.37240439996822,187.37237230001483,187.37237230001483,187.37237230001483,187.75665709999157,l,0.38243459997465834,None,,Participant 4,001,2024-11-19_17h10.03.639,Delay dfiscounting,2024.2.4,60.50089903999281,2024-11-19 17h10.16.727877 +0530,
27,50,21,119,0,17,l,0.48019159998511896,None,17,0,119,2,187.77221949998057,,187.76012250001077,187.77221949998057,188.7720804999699,188.7720804999699,188.7720804999699,189.25560069998028,l,0.48019159998511896,None,,Participant 4,001,2024-11-19_17h10.03.639,Delay dfiscounting,2024.2.4,60.50089903999281,2024-11-19 17h10.16.727877 +0530,
15,35,13,120,1,17,l,0.46011629997519776,None,17,1,120,1,189.27121949999128,,189.25902190001216,189.27121949999128,190.2708967999788,190.2708967999788,190.2708967999788,190.73814209998818,l,0.46011629997519776,None,,Participant 4,001,2024-11-19_17h10.03.639,Delay dfiscounting,2024.2.4,60.50089903999281,2024-11-19 17h10.16.727877 +0530,
11,30,7,121,2,17,t,0.3701870000222698,None,17,2,121,0,190.75382849999005,,190.7410804000101,190.75382849999005,191.75380130001577,191.75380130001577,191.75380130001577,192.13804970000638,t,0.3701870000222698,None,,Participant 4,001,2024-11-19_17h10.03.639,Delay dfiscounting,2024.2.4,60.50089903999281,2024-11-19 17h10.16.727877 +0530,
40,55,62,122,3,17,t,0.38286180002614856,None,17,3,122,3,192.15362220001407,,192.1418713000021,192.15362220001407,193.15280499996152,193.15280499996152,193.15280499996152,193.53739429998677,t,0.38286180002614856,None,,Participant 4,001,2024-11-19_17h10.03.639,Delay dfiscounting,2024.2.4,60.50089903999281,2024-11-19 17h10.16.727877 +0530,
49,60,89,123,4,17,t,0.34981330001028255,None,17,4,123,4,193.55265799997142,,193.5404502999736,193.55265799997142,194.55297610000707,194.55297610000707,194.55297610000707,194.91972299996996,t,0.34981330001028255,None,,Participant 4,001,2024-11-19_17h10.03.639,Delay dfiscounting,2024.2.4,60.50089903999281,2024-11-19 17h10.16.727877 +0530,
78,80,162,124,5,17,t,0.4200585000216961,None,17,5,124,6,194.9356699999771,,194.9234118000022,194.9356699999771,195.9190709000104,195.9190709000104,195.93552269996144,196.3523078999715,t,0.4200585000216961,None,,Participant 4,001,2024-11-19_17h10.03.639,Delay dfiscounting,2024.2.4,60.50089903999281,2024-11-19 17h10.16.727877 +0530,
67,75,119,125,6,17,t,0.5528496999759227,None,17,6,125,5,196.36841639998602,,196.35513929999433,196.36841639998602,197.35211209999397,197.35211209999397,197.36810580000747,197.91873390000546,t,0.5528496999759227,None,,Participant 4,001,2024-11-19_17h10.03.639,Delay dfiscounting,2024.2.4,60.50089903999281,2024-11-19 17h10.16.727877 +0530,
27,50,21,126,0,18,t,0.40239399997517467,None,18,0,126,2,197.9343821000075,,197.92258630000288,197.9343821000075,198.93376980000176,198.93376980000176,198.93376980000176,199.35094580001896,t,0.40239399997517467,None,,Participant 4,001,2024-11-19_17h10.03.639,Delay dfiscounting,2024.2.4,60.50089903999281,2024-11-19 17h10.16.727877 +0530,
11,30,7,127,1,18,l,0.38584379997337237,None,18,1,127,0,199.36701469996478,,199.35410739999497,199.36701469996478,200.35012770001777,200.35012770001777,200.36659459996736,200.75075659999857,l,0.38584379997337237,None,,Participant 4,001,2024-11-19_17h10.03.639,Delay dfiscounting,2024.2.4,60.50089903999281,2024-11-19 17h10.16.727877 +0530,
67,75,119,128,2,18,t,0.4555945000029169,None,18,2,128,5,200.76629499997944,,200.75390899996273,200.76629499997944,201.76606369996443,201.76606369996443,201.76606369996443,202.2330459000077,t,0.4555945000029169,None,,Participant 4,001,2024-11-19_17h10.03.639,Delay dfiscounting,2024.2.4,60.50089903999281,2024-11-19 17h10.16.727877 +0530,
49,60,89,129,3,18,t,0.47997769998619333,None,18,3,129,4,202.2489497999777,,202.23597410001094,202.2489497999777,203.23196050000843,203.23196050000843,203.24845690000802,203.71609090000857,t,0.47997769998619333,None,,Participant 4,001,2024-11-19_17h10.03.639,Delay dfiscounting,2024.2.4,60.50089903999281,2024-11-19 17h10.16.727877 +0530,
15,35,13,130,4,18,l,0.3728133999975398,None,18,4,130,1,203.73175029997947,,203.71927269996377,203.73175029997947,204.73143980000168,204.73143980000168,204.73143980000168,205.1154808999854,l,0.3728133999975398,None,,Participant 4,001,2024-11-19_17h10.03.639,Delay dfiscounting,2024.2.4,60.50089903999281,2024-11-19 17h10.16.727877 +0530,
40,55,62,131,5,18,t,0.3870654000202194,None,18,5,131,3,205.13130969996564,,205.11879869998666,205.13130969996564,206.13087729999097,206.13087729999097,206.13087729999097,206.53175899997586,t,0.3870654000202194,None,,Participant 4,001,2024-11-19_17h10.03.639,Delay dfiscounting,2024.2.4,60.50089903999281,2024-11-19 17h10.16.727877 +0530,
78,80,162,132,6,18,t,0.556373099971097,None,18,6,132,6,206.54785339999944,,206.53530960000353,206.54785339999944,207.54706999997143,207.54706999997143,207.54706999997143,208.1143516000011,t,0.556373099971097,None,,Participant 4,001,2024-11-19_17h10.03.639,Delay dfiscounting,2024.2.4,60.50089903999281,2024-11-19 17h10.16.727877 +0530,
78,80,162,133,0,19,t,0.46395880001364276,None,19,0,133,6,208.12997030001134,,208.11455040000146,208.12997030001134,209.12925599998562,209.12925599998562,209.12925599998562,209.59691590000875,t,0.46395880001364276,None,,Participant 4,001,2024-11-19_17h10.03.639,Delay dfiscounting,2024.2.4,60.50089903999281,2024-11-19 17h10.16.727877 +0530,
15,35,13,134,1,19,l,0.5039815000491217,None,19,1,134,1,209.61262919998262,,209.60046609997516,209.61262919998262,210.61225010000635,210.61225010000635,210.61225010000635,211.13013850001153,l,0.5039815000491217,None,,Participant 4,001,2024-11-19_17h10.03.639,Delay dfiscounting,2024.2.4,60.50089903999281,2024-11-19 17h10.16.727877 +0530,
27,50,21,135,2,19,l,0.4658701000153087,None,19,2,135,2,211.14546480000718,,211.13345269998536,211.14546480000718,212.14555620000465,212.14555620000465,212.14555620000465,212.6131324999733,l,0.4658701000153087,None,,Participant 4,001,2024-11-19_17h10.03.639,Delay dfiscounting,2024.2.4,60.50089903999281,2024-11-19 17h10.16.727877 +0530,
11,30,7,136,3,19,l,0.3568529000040144,None,19,3,136,0,212.62854010000592,,212.61618409998482,212.62854010000592,213.6277820999967,213.6277820999967,213.6277820999967,213.99462640000274,l,0.3568529000040144,None,,Participant 4,001,2024-11-19_17h10.03.639,Delay dfiscounting,2024.2.4,60.50089903999281,2024-11-19 17h10.16.727877 +0530,
67,75,119,137,4,19,t,0.45402140001533553,None,19,4,137,5,214.01060189999407,,213.99749689997407,214.01060189999407,215.01016339997295,215.01016339997295,215.01016339997295,215.4778845999972,t,0.45402140001533553,None,,Participant 4,001,2024-11-19_17h10.03.639,Delay dfiscounting,2024.2.4,60.50089903999281,2024-11-19 17h10.16.727877 +0530,
49,60,89,138,5,19,t,0.4736798999947496,None,19,5,138,4,215.49343959998805,,215.48092559998622,215.49343959998805,216.49278450000565,216.49278450000565,216.49278450000565,216.97670880000805,t,0.4736798999947496,None,,Participant 4,001,2024-11-19_17h10.03.639,Delay dfiscounting,2024.2.4,60.50089903999281,2024-11-19 17h10.16.727877 +0530,
40,55,62,139,6,19,t,0.4544146999833174,None,19,6,139,3,216.99303439998766,,216.97995919996174,216.99303439998766,217.99230119999265,217.99230119999265,217.99230119999265,218.46014739997918,t,0.4544146999833174,None,,Participant 4,001,2024-11-19_17h10.03.639,Delay dfiscounting,2024.2.4,60.50089903999281,2024-11-19 17h10.16.727877 +0530,
49,60,89,140,0,20,t,0.33197389997076243,None,20,0,140,4,218.47543799999403,,218.46306559996447,218.47543799999403,219.47482299996773,219.47482299996773,219.47482299996773,219.80919080000604,t,0.33197389997076243,None,,Participant 4,001,2024-11-19_17h10.03.639,Delay dfiscounting,2024.2.4,60.50089903999281,2024-11-19 17h10.16.727877 +0530,
11,30,7,141,1,20,l,0.5021923999884166,None,20,1,141,0,219.8247481000144,,219.81254179996904,219.8247481000144,220.82417430001078,220.82417430001078,220.82417430001078,221.34186950000003,l,0.5021923999884166,None,,Participant 4,001,2024-11-19_17h10.03.639,Delay dfiscounting,2024.2.4,60.50089903999281,2024-11-19 17h10.16.727877 +0530,
78,80,162,142,2,20,t,0.37284780002664775,None,20,2,142,6,221.35735920001753,,221.34517509996658,221.35735920001753,222.35713660001056,222.35713660001056,222.35713660001056,222.74094940000214,t,0.37284780002664775,None,,Participant 4,001,2024-11-19_17h10.03.639,Delay dfiscounting,2024.2.4,60.50089903999281,2024-11-19 17h10.16.727877 +0530,
40,55,62,143,3,20,t,0.5473677999689244,None,20,3,143,3,222.75674480001908,,222.7442637999775,222.75674480001908,223.75655799999367,223.75655799999367,223.75655799999367,224.30684899998596,t,0.5473677999689244,None,,Participant 4,001,2024-11-19_17h10.03.639,Delay dfiscounting,2024.2.4,60.50089903999281,2024-11-19 17h10.16.727877 +0530,
27,50,21,144,4,20,l,0.5510144999716431,None,20,4,144,2,224.32283309998456,,224.310296199983,224.32283309998456,225.30591729999287,225.30591729999287,225.3225496999803,225.87379220000003,l,0.5510144999716431,None,,Participant 4,001,2024-11-19_17h10.03.639,Delay dfiscounting,2024.2.4,60.50089903999281,2024-11-19 17h10.16.727877 +0530,
67,75,119,145,5,20,t,0.4036542999674566,None,20,5,145,5,225.88949969998794,,225.876812100003,225.88949969998794,226.88824140001088,226.88824140001088,226.88824140001088,227.30620839999756,t,0.4036542999674566,None,,Participant 4,001,2024-11-19_17h10.03.639,Delay dfiscounting,2024.2.4,60.50089903999281,2024-11-19 17h10.16.727877 +0530,
15,35,13,146,6,20,l,0.5416721999645233,None,20,6,146,1,227.3216461999691,,227.30918059998658,227.3216461999691,228.32089039997663,228.32089039997663,228.32089039997663,228.87210340000456,l,0.5416721999645233,None,,Participant 4,001,2024-11-19_17h10.03.639,Delay dfiscounting,2024.2.4,60.50089903999281,2024-11-19 17h10.16.727877 +0530,
49,60,89,147,0,21,t,0.5396307000191882,None,21,0,147,4,228.88763070001733,,228.87503250001464,228.88763070001733,229.88709380000364,229.88709380000364,229.88709380000364,230.43765609996626,t,0.5396307000191882,None,,Participant 4,001,2024-11-19_17h10.03.639,Delay dfiscounting,2024.2.4,60.50089903999281,2024-11-19 17h10.16.727877 +0530,
11,30,7,148,1,21,l,0.5447050000075251,None,21,1,148,0,230.45367489999626,,230.440657500003,230.45367489999626,231.453231099993,231.453231099993,231.453231099993,232.00437310000416,l,0.5447050000075251,None,,Participant 4,001,2024-11-19_17h10.03.639,Delay dfiscounting,2024.2.4,60.50089903999281,2024-11-19 17h10.16.727877 +0530,
40,55,62,149,2,21,t,0.4507270000176504,None,21,2,149,3,232.0203257999965,,232.00764440000057,232.0203257999965,233.01960880000843,233.01960880000843,233.01960880000843,233.48669069999596,t,0.4507270000176504,None,,Participant 4,001,2024-11-19_17h10.03.639,Delay dfiscounting,2024.2.4,60.50089903999281,2024-11-19 17h10.16.727877 +0530,
15,35,13,150,3,21,l,1.232051800005138,None,21,3,150,1,233.50252400001045,,233.48961869999766,233.50252400001045,234.50197499996284,234.50197499996284,234.50197499996284,235.73565689998213,l,1.232051800005138,None,,Participant 4,001,2024-11-19_17h10.03.639,Delay dfiscounting,2024.2.4,60.50089903999281,2024-11-19 17h10.16.727877 +0530,
27,50,21,151,4,21,l,0.7158441999927163,None,21,4,151,2,235.75114060001215,,235.7390912999981,235.75114060001215,236.75093239999842,236.75093239999842,236.75093239999842,237.46847319998778,l,0.7158441999927163,None,,Participant 4,001,2024-11-19_17h10.03.639,Delay dfiscounting,2024.2.4,60.50089903999281,2024-11-19 17h10.16.727877 +0530,
78,80,162,152,5,21,t,0.38279180001700297,None,21,5,152,6,237.48382219998166,,237.47178029996576,237.48382219998166,238.48353329999372,238.48353329999372,238.48353329999372,238.8684589000186,t,0.38279180001700297,None,,Participant 4,001,2024-11-19_17h10.03.639,Delay dfiscounting,2024.2.4,60.50089903999281,2024-11-19 17h10.16.727877 +0530,
67,75,119,153,6,21,t,0.44652959995437413,None,21,6,153,5,238.88320619997103,,238.8712895999779,238.88320619997103,239.88383179996163,239.88383179996163,239.88383179996163,240.33321299997624,t,0.44652959995437413,None,,Participant 4,001,2024-11-19_17h10.03.639,Delay dfiscounting,2024.2.4,60.50089903999281,2024-11-19 17h10.16.727877 +0530,
27,50,21,154,0,22,l,0.562213699973654,None,22,0,154,2,240.34937459998764,,240.33662429999094,240.34937459998764,241.3487247999874,241.3487247999874,241.3487247999874,241.91598140000133,l,0.562213699973654,None,,Participant 4,001,2024-11-19_17h10.03.639,Delay dfiscounting,2024.2.4,60.50089903999281,2024-11-19 17h10.16.727877 +0530,
49,60,89,155,1,22,t,0.367246099980548,None,22,1,155,4,241.93177969998214,,241.9188960000174,241.93177969998214,242.9155171000166,242.9155171000166,242.9316395999631,243.2989263999625,t,0.367246099980548,None,,Participant 4,001,2024-11-19_17h10.03.639,Delay dfiscounting,2024.2.4,60.50089903999281,2024-11-19 17h10.16.727877 +0530,
15,35,13,156,2,22,l,0.5198646999779157,None,22,2,156,1,243.3149363999837,,243.3018516000011,243.3149363999837,244.31422279996332,244.31422279996332,244.31422279996332,244.8485833000159,l,0.5198646999779157,None,,Participant 4,001,2024-11-19_17h10.03.639,Delay dfiscounting,2024.2.4,60.50089903999281,2024-11-19 17h10.16.727877 +0530,
78,80,162,157,3,22,t,0.43464120000135154,None,22,3,157,6,244.86377509997692,,244.85191209998447,244.86377509997692,245.86365919996751,245.86365919996751,245.86365919996751,246.3141330999788,t,0.43464120000135154,None,,Participant 4,001,2024-11-19_17h10.03.639,Delay dfiscounting,2024.2.4,60.50089903999281,2024-11-19 17h10.16.727877 +0530,
11,30,7,158,4,22,l,0.4219469999661669,None,22,4,158,0,246.32990429998608,,246.3170963000157,246.32990429998608,247.3127546000178,247.3127546000178,247.32939339999575,247.74722059996566,l,0.4219469999661669,None,,Participant 4,001,2024-11-19_17h10.03.639,Delay dfiscounting,2024.2.4,60.50089903999281,2024-11-19 17h10.16.727877 +0530,
40,55,62,159,5,22,t,0.5103439000085928,None,22,5,159,3,247.76278220000677,,247.7505096999812,247.76278220000677,248.76241580001079,248.76241580001079,248.76241580001079,249.27960050001275,t,0.5103439000085928,None,,Participant 4,001,2024-11-19_17h10.03.639,Delay dfiscounting,2024.2.4,60.50089903999281,2024-11-19 17h10.16.727877 +0530,
67,75,119,160,6,22,t,0.6625365000218153,None,22,6,160,5,249.29529799998272,,249.28240590001224,249.29529799998272,250.29490410001017,250.29490410001017,250.29490410001017,250.9626155999722,t,0.6625365000218153,None,,Participant 4,001,2024-11-19_17h10.03.639,Delay dfiscounting,2024.2.4,60.50089903999281,2024-11-19 17h10.16.727877 +0530,
11,30,7,161,0,23,l,0.4313636000151746,None,23,0,161,0,250.9780221999972,,250.96575949998805,250.9780221999972,251.9773999999743,251.9773999999743,251.9773999999743,252.41148389998125,l,0.4313636000151746,None,,Participant 4,001,2024-11-19_17h10.03.639,Delay dfiscounting,2024.2.4,60.50089903999281,2024-11-19 17h10.16.727877 +0530,
67,75,119,162,1,23,t,0.582698000012897,None,23,1,162,5,252.42744190001395,,252.41426320001483,252.42744190001395,253.42680829996243,253.42680829996243,253.42680829996243,254.01144490001025,t,0.582698000012897,None,,Participant 4,001,2024-11-19_17h10.03.639,Delay dfiscounting,2024.2.4,60.50089903999281,2024-11-19 17h10.16.727877 +0530,
40,55,62,163,2,23,t,1.0475979000329971,None,23,2,163,3,254.02661479997914,,254.01509860000806,254.02661479997914,255.02634489996126,255.02634489996126,255.02634489996126,256.0765677000163,t,1.0475979000329971,None,,Participant 4,001,2024-11-19_17h10.03.639,Delay dfiscounting,2024.2.4,60.50089903999281,2024-11-19 17h10.16.727877 +0530,
49,60,89,164,3,23,t,0.4358420000062324,None,23,3,164,4,256.09246549999807,,256.0798005000106,256.09246549999807,257.09214139997493,257.09214139997493,257.09214139997493,257.54270419996465,t,0.4358420000062324,None,,Participant 4,001,2024-11-19_17h10.03.639,Delay dfiscounting,2024.2.4,60.50089903999281,2024-11-19 17h10.16.727877 +0530,
78,80,162,165,4,23,t,0.40411080000922084,None,23,4,165,6,257.55832379998174,,257.5464302999899,257.55832379998174,258.55790359998355,258.55790359998355,258.55790359998355,258.975146199984,t,0.40411080000922084,None,,Participant 4,001,2024-11-19_17h10.03.639,Delay dfiscounting,2024.2.4,60.50089903999281,2024-11-19 17h10.16.727877 +0530,
15,35,13,166,5,23,l,0.558567599975504,None,23,5,166,1,258.99134780000895,,258.97826840000926,258.99134780000895,259.99132480000844,259.99132480000844,259.99132480000844,260.5584880000097,l,0.558567599975504,None,,Participant 4,001,2024-11-19_17h10.03.639,Delay dfiscounting,2024.2.4,60.50089903999281,2024-11-19 17h10.16.727877 +0530,
27,50,21,167,6,23,l,0.5705725000007078,None,23,6,167,2,260.5745629000012,,260.56208569998853,260.5745629000012,261.5733031000127,261.5733031000127,261.5733031000127,262.1571189999813,l,0.5705725000007078,None,,Participant 4,001,2024-11-19_17h10.03.639,Delay dfiscounting,2024.2.4,60.50089903999281,2024-11-19 17h10.16.727877 +0530,
15,35,13,168,0,24,l,0.49064909998560324,None,24,0,168,1,262.17299409996485,,262.1602126999642,262.17299409996485,263.17257990001235,263.17257990001235,263.17257990001235,263.6732677000109,l,0.49064909998560324,None,,Participant 4,001,2024-11-19_17h10.03.639,Delay dfiscounting,2024.2.4,60.50089903999281,2024-11-19 17h10.16.727877 +0530,
78,80,162,169,1,24,l,0.4397467999951914,None,24,1,169,6,263.689212199999,,263.67699639999773,263.689212199999,264.6886812999728,264.6886812999728,264.6886812999728,265.13997179997386,l,0.4397467999951914,None,,Participant 4,001,2024-11-19_17h10.03.639,Delay dfiscounting,2024.2.4,60.50089903999281,2024-11-19 17h10.16.727877 +0530,
49,60,89,170,2,24,,,,24,2,170,4,265.15552510001,,265.143028499966,265.15552510001,266.15462899999693,266.15462899999693,266.15462899999693,,,,,,,,,,,,,
