reward_today,future_reward,delay,thisN,thisTrialN,thisRepN,key_resp.keys,key_resp.rt,key_resp.duration,trials.thisRepN,trials.thisTrialN,trials.thisN,trials.thisIndex,thisRow.t,notes,trial.started,fixation.started,text.started,key_resp.started,fixation.stopped,trial.stopped,trials.key_resp.keys,trials.key_resp.rt,trials.key_resp.duration,text.stopped,participant,session,date,expName,psychopyVersion,frameRate,expStart,
27,50,21,0,0,0,l,1.2496129999635741,None,0,0,0,2,0.274175499973353,,0.254023999965284,0.274175499973353,1.0059345999616198,1.0059345999616198,1.273777499969583,2.2998801000067033,l,1.2496129999635741,None,,participant 3,001,2024-11-19_16h58.39.619,Delay dfiscounting,2024.2.4,60.06218838792312,2024-11-19 16h58.51.942008 +0530,
78,80,162,1,1,0,t,0.7011331000248902,None,0,1,1,6,2.3233970999717712,,2.304683299968019,2.3233970999717712,3.305772199993953,3.305772199993953,3.3229299999657087,4.0228896999615245,t,0.7011331000248902,None,,participant 3,001,2024-11-19_16h58.39.619,Delay dfiscounting,2024.2.4,60.06218838792312,2024-11-19 16h58.51.942008 +0530,
15,35,13,2,2,0,l,0.513040300051216,None,0,2,2,1,4.03800359996967,,4.027193799964152,4.03800359996967,5.038568299962208,5.038568299962208,5.038568299962208,5.555630899965763,l,0.513040300051216,None,,participant 3,001,2024-11-19_16h58.39.619,Delay dfiscounting,2024.2.4,60.06218838792312,2024-11-19 16h58.51.942008 +0530,
40,55,62,3,3,0,l,0.9915267999749631,None,0,3,3,3,5.596718199958559,,5.58117099996889,5.596718199958559,6.563065700000152,6.563065700000152,6.596184399968479,7.563404399959836,l,0.9915267999749631,None,,participant 3,001,2024-11-19_16h58.39.619,Delay dfiscounting,2024.2.4,60.06218838792312,2024-11-19 16h58.51.942008 +0530,
11,30,7,4,4,0,l,1.1915622999658808,None,0,4,4,0,7.5784659999771975,,7.5667345999972895,7.5784659999771975,8.56251069996506,8.56251069996506,8.578656399971806,9.762513299996499,l,1.1915622999658808,None,,participant 3,001,2024-11-19_16h58.39.619,Delay dfiscounting,2024.2.4,60.06218838792312,2024-11-19 16h58.51.942008 +0530,
49,60,89,5,5,0,l,0.7819809999782592,None,0,5,5,4,9.777543700009119,,9.768300900002941,9.777543700009119,10.77766540000448,10.77766540000448,10.77766540000448,11.56190470000729,l,0.7819809999782592,None,,participant 3,001,2024-11-19_16h58.39.619,Delay dfiscounting,2024.2.4,60.06218838792312,2024-11-19 16h58.51.942008 +0530,
67,75,119,6,6,0,t,0.46522060001734644,None,0,6,6,5,11.576633699995,,11.565536300011445,11.576633699995,12.576763499993831,12.576763499993831,12.576763499993831,13.044151599984616,t,0.46522060001734644,None,,participant 3,001,2024-11-19_16h58.39.619,Delay dfiscounting,2024.2.4,60.06218838792312,2024-11-19 16h58.51.942008 +0530,
67,75,119,7,0,1,t,0.4455657000071369,None,1,0,7,5,13.060195699974429,,13.044366199988872,13.060195699974429,14.05987080000341,14.05987080000341,14.05987080000341,14.51018829998793,t,0.4455657000071369,None,,participant 3,001,2024-11-19_16h58.39.619,Delay dfiscounting,2024.2.4,60.06218838792312,2024-11-19 16h58.51.942008 +0530,
40,55,62,8,1,1,l,0.6786510000238195,None,1,1,8,3,14.525104600004852,,14.513340400008019,14.525104600004852,15.509610300010536,15.509610300010536,15.526246399967931,16.19310420000693,l,0.6786510000238195,None,,participant 3,001,2024-11-19_16h58.39.619,Delay dfiscounting,2024.2.4,60.06218838792312,2024-11-19 16h58.51.942008 +0530,
78,80,162,9,2,1,t,0.38184889999683946,None,1,2,9,6,16.207758200005628,,16.196163399959914,16.207758200005628,17.20830840000417,17.20830840000417,17.20830840000417,17.592387299984694,t,0.38184889999683946,None,,participant 3,001,2024-11-19_16h58.39.619,Delay dfiscounting,2024.2.4,60.06218838792312,2024-11-19 16h58.51.942008 +0530,
15,35,13,10,3,1,l,0.35994019999634475,None,1,3,10,1,17.60717819997808,,17.595400599995628,17.60717819997808,18.591380099998787,18.591380099998787,18.60770120000234,18.958668800012674,l,0.35994019999634475,None,,participant 3,001,2024-11-19_16h58.39.619,Delay dfiscounting,2024.2.4,60.06218838792312,2024-11-19 16h58.51.942008 +0530,
11,30,7,11,4,1,l,0.5782783000031486,None,1,4,11,0,18.97356369998306,,18.96184699999867,18.97356369998306,19.974180399964098,19.974180399964098,19.974180399964098,20.55789160000859,l,0.5782783000031486,None,,participant 3,001,2024-11-19_16h58.39.619,Delay dfiscounting,2024.2.4,60.06218838792312,2024-11-19 16h58.51.942008 +0530,
27,50,21,12,5,1,t,34.76142910000635,None,1,5,12,2,20.57274629996391,,20.561120599973947,20.57274629996391,21.574455599999055,21.574455599999055,21.574455599999055,56.342534700001124,t,34.76142910000635,None,23.58977809996577,participant 3,001,2024-11-19_16h58.39.619,Delay dfiscounting,2024.2.4,60.06218838792312,2024-11-19 16h58.51.942008 +0530,
49,60,89,13,6,1,l,1.1927203999948688,None,1,6,13,4,56.35702830000082,,56.34642769995844,56.35702830000082,57.35744849999901,57.35744849999901,57.35744849999901,58.55797560000792,l,1.1927203999948688,None,,participant 3,001,2024-11-19_16h58.39.619,Delay dfiscounting,2024.2.4,60.06218838792312,2024-11-19 16h58.51.942008 +0530,
11,30,7,14,0,2,l,0.7814578000106849,None,2,0,14,0,58.572733799985144,,58.560930599982385,58.572733799985144,59.55712989997119,59.55712989997119,59.57333949999884,60.34082799998578,l,0.7814578000106849,None,,participant 3,001,2024-11-19_16h58.39.619,Delay dfiscounting,2024.2.4,60.06218838792312,2024-11-19 16h58.51.942008 +0530,
67,75,119,15,1,2,t,0.5175954999867827,None,2,1,15,5,60.35564839997096,,60.344776000012644,60.35564839997096,61.355967599956784,61.355967599956784,61.355967599956784,61.89057909999974,t,0.5175954999867827,None,,participant 3,001,2024-11-19_16h58.39.619,Delay dfiscounting,2024.2.4,60.06218838792312,2024-11-19 16h58.51.942008 +0530,
49,60,89,16,2,2,l,0.49556450004456565,None,2,2,16,4,61.904973299999256,,61.89407619996928,61.904973299999256,62.90503389999503,62.90503389999503,62.90503389999503,63.40588239999488,l,0.49556450004456565,None,,participant 3,001,2024-11-19_16h58.39.619,Delay dfiscounting,2024.2.4,60.06218838792312,2024-11-19 16h58.51.942008 +0530,
40,55,62,17,3,2,l,0.41323879995616153,None,2,3,17,3,63.42071119998582,,63.409336299984716,63.42071119998582,64.42095120000886,64.42095120000886,64.42095120000886,64.83857039996656,l,0.41323879995616153,None,,participant 3,001,2024-11-19_16h58.39.619,Delay dfiscounting,2024.2.4,60.06218838792312,2024-11-19 16h58.51.942008 +0530,
15,35,13,18,4,2,l,0.38435950002167374,None,2,4,18,1,64.8536780999857,,64.8418851000024,64.8536780999857,65.8540609999909,65.8540609999909,65.8540609999909,66.25431059999391,l,0.38435950002167374,None,,participant 3,001,2024-11-19_16h58.39.619,Delay dfiscounting,2024.2.4,60.06218838792312,2024-11-19 16h58.51.942008 +0530,
27,50,21,19,5,2,l,0.4305764000164345,None,2,5,19,2,66.26948249997804,,66.2575535000069,66.26948249997804,67.25378159998218,67.25378159998218,67.27045459998772,67.68715750001138,l,0.4305764000164345,None,,participant 3,001,2024-11-19_16h58.39.619,Delay dfiscounting,2024.2.4,60.06218838792312,2024-11-19 16h58.51.942008 +0530,
78,80,162,20,6,2,t,0.3470466999569908,None,2,6,20,6,67.70252299995627,,67.69001500000013,67.70252299995627,68.68622819997836,68.68622819997836,68.70247799996287,69.03647210000781,t,0.3470466999569908,None,,participant 3,001,2024-11-19_16h58.39.619,Delay dfiscounting,2024.2.4,60.06218838792312,2024-11-19 16h58.51.942008 +0530,
11,30,7,21,0,3,l,0.6162572999601252,None,3,0,21,0,69.05187319999095,,69.0395897999988,69.05187319999095,70.03569119999884,70.03569119999884,70.05210639996221,70.65344480000203,l,0.6162572999601252,None,,participant 3,001,2024-11-19_16h58.39.619,Delay dfiscounting,2024.2.4,60.06218838792312,2024-11-19 16h58.51.942008 +0530,
15,35,13,22,1,3,l,0.5177670999546535,None,3,1,22,1,70.66773549997015,,70.65635239996482,70.66773549997015,71.6679790999624,71.6679790999624,71.6679790999624,72.2020491999574,l,0.5177670999546535,None,,participant 3,001,2024-11-19_16h58.39.619,Delay dfiscounting,2024.2.4,60.06218838792312,2024-11-19 16h58.51.942008 +0530,
67,75,119,23,2,3,t,0.4746453000116162,None,3,2,23,5,72.21685189998243,,72.20551419997355,72.21685189998243,73.20195109996712,73.20195109996712,73.21782239997992,73.68482199998107,t,0.4746453000116162,None,,participant 3,001,2024-11-19_16h58.39.619,Delay dfiscounting,2024.2.4,60.06218838792312,2024-11-19 16h58.51.942008 +0530,
78,80,162,24,3,3,t,0.47982489998685196,None,3,3,24,6,73.69968269998208,,73.68776729999809,73.69968269998208,74.6840252999682,74.6840252999682,74.70044399995822,75.16734759998508,t,0.47982489998685196,None,,participant 3,001,2024-11-19_16h58.39.619,Delay dfiscounting,2024.2.4,60.06218838792312,2024-11-19 16h58.51.942008 +0530,
27,50,21,25,4,3,l,0.4890422999742441,None,3,4,25,2,75.18232590000844,,75.17065799998818,75.18232590000844,76.18259539996507,76.18259539996507,76.18259539996507,76.6836040999624,l,0.4890422999742441,None,,participant 3,001,2024-11-19_16h58.39.619,Delay dfiscounting,2024.2.4,60.06218838792312,2024-11-19 16h58.51.942008 +0530,
49,60,89,26,5,3,l,0.443002299987711,None,3,5,26,4,76.69842789997347,,76.68725769995945,76.69842789997347,77.69900849997066,77.69900849997066,77.69900849997066,78.14938359998632,l,0.443002299987711,None,,participant 3,001,2024-11-19_16h58.39.619,Delay dfiscounting,2024.2.4,60.06218838792312,2024-11-19 16h58.51.942008 +0530,
40,55,62,27,6,3,l,0.40364000003319234,None,3,6,27,3,78.16432499996154,,78.15276119997725,78.16432499996154,79.16477309999755,79.16477309999755,79.16477309999755,79.58243049995508,l,0.40364000003319234,None,,participant 3,001,2024-11-19_16h58.39.619,Delay dfiscounting,2024.2.4,60.06218838792312,2024-11-19 16h58.51.942008 +0530,
67,75,119,28,0,4,t,0.3628397000138648,None,4,0,28,5,79.5970604000031,,79.5857149999938,79.5970604000031,80.59758850000799,80.59758850000799,80.59758850000799,80.96536400000332,t,0.3628397000138648,None,,participant 3,001,2024-11-19_16h58.39.619,Delay dfiscounting,2024.2.4,60.06218838792312,2024-11-19 16h58.51.942008 +0530,
15,35,13,29,1,4,l,0.42959109996445477,None,4,1,29,1,80.9800063999719,,80.96890609996626,80.9800063999719,81.98045420000562,81.98045420000562,81.98045420000562,82.41416089999257,l,0.42959109996445477,None,,participant 3,001,2024-11-19_16h58.39.619,Delay dfiscounting,2024.2.4,60.06218838792312,2024-11-19 16h58.51.942008 +0530,
78,80,162,30,2,4,t,0.44711589999496937,None,4,2,30,6,82.42929850000655,,82.41739909996977,82.42929850000655,83.42997479997575,83.42997479997575,83.42997479997575,83.88105540000834,t,0.44711589999496937,None,,participant 3,001,2024-11-19_16h58.39.619,Delay dfiscounting,2024.2.4,60.06218838792312,2024-11-19 16h58.51.942008 +0530,
11,30,7,31,3,4,l,0.5930341999628581,None,4,3,31,0,83.89513359998818,,83.88417839998147,83.89513359998818,84.89589200000046,84.89589200000046,84.89589200000046,85.49629739997908,l,0.5930341999628581,None,,participant 3,001,2024-11-19_16h58.39.619,Delay dfiscounting,2024.2.4,60.06218838792312,2024-11-19 16h58.51.942008 +0530,
40,55,62,32,4,4,l,0.3280151999788359,None,4,4,32,3,85.51143249997403,,85.49923799996031,85.51143249997403,86.5122190999682,86.5122190999682,86.5122190999682,86.84574049996445,l,0.3280151999788359,None,,participant 3,001,2024-11-19_16h58.39.619,Delay dfiscounting,2024.2.4,60.06218838792312,2024-11-19 16h58.51.942008 +0530,
49,60,89,33,5,4,l,0.33022470003925264,None,4,5,33,4,86.86084909999045,,86.84946229995694,86.86084909999045,87.84385629999451,87.84385629999451,87.86099879996618,88.17822449997766,l,0.33022470003925264,None,,participant 3,001,2024-11-19_16h58.39.619,Delay dfiscounting,2024.2.4,60.06218838792312,2024-11-19 16h58.51.942008 +0530,
27,50,21,34,6,4,l,0.32104979996802285,None,4,6,34,2,88.19333459995687,,88.18134509999072,88.19333459995687,89.17709439998725,89.17709439998725,89.19373820000328,89.51241849997314,l,0.32104979996802285,None,,participant 3,001,2024-11-19_16h58.39.619,Delay dfiscounting,2024.2.4,60.06218838792312,2024-11-19 16h58.51.942008 +0530,
15,35,13,35,0,5,l,0.368276400025934,None,5,0,35,1,89.52664140000707,,89.51573169999756,89.52664140000707,90.52657679998083,90.52657679998083,90.52657679998083,90.91052179998951,l,0.368276400025934,None,,participant 3,001,2024-11-19_16h58.39.619,Delay dfiscounting,2024.2.4,60.06218838792312,2024-11-19 16h58.51.942008 +0530,
78,80,162,36,1,5,l,0.4185189999989234,None,5,1,36,6,90.92576279997593,,90.91339519998292,90.92576279997593,91.90937189996475,91.90937189996475,91.92595469998196,92.343589600001,l,0.4185189999989234,None,,participant 3,001,2024-11-19_16h58.39.619,Delay dfiscounting,2024.2.4,60.06218838792312,2024-11-19 16h58.51.942008 +0530,
40,55,62,37,2,5,l,0.3539514999720268,None,5,2,37,3,92.35846199997468,,92.34729119995609,92.35846199997468,93.35873999999603,93.35873999999603,93.35873999999603,93.7259694999666,l,0.3539514999720268,None,,participant 3,001,2024-11-19_16h58.39.619,Delay dfiscounting,2024.2.4,60.06218838792312,2024-11-19 16h58.51.942008 +0530,
27,50,21,38,3,5,l,0.6706940999720246,None,5,3,38,2,93.74108770000748,,93.72896340000443,93.74108770000748,94.74143880000338,94.74143880000338,94.74143880000338,95.42510689998744,l,0.6706940999720246,None,,participant 3,001,2024-11-19_16h58.39.619,Delay dfiscounting,2024.2.4,60.06218838792312,2024-11-19 16h58.51.942008 +0530,
49,60,89,39,4,5,l,1.5103096999810077,None,5,4,39,4,95.44038819998968,,95.42927129997406,95.44038819998968,96.440678199986,96.440678199986,96.440678199986,97.95887539995601,l,1.5103096999810077,None,,participant 3,001,2024-11-19_16h58.39.619,Delay dfiscounting,2024.2.4,60.06218838792312,2024-11-19 16h58.51.942008 +0530,
11,30,7,40,5,5,l,0.4380431000026874,None,5,5,40,0,97.97265939996578,,97.96194389997981,97.97265939996578,98.97312689997489,98.97312689997489,98.97312689997489,99.42390210001031,l,0.4380431000026874,None,,participant 3,001,2024-11-19_16h58.39.619,Delay dfiscounting,2024.2.4,60.06218838792312,2024-11-19 16h58.51.942008 +0530,
67,75,119,41,6,5,t,0.5067933999816887,None,5,6,41,5,99.4386639999575,,99.4276525999885,99.4386639999575,100.43895809998503,100.43895809998503,100.43895809998503,100.95660949999001,t,0.5067933999816887,None,,participant 3,001,2024-11-19_16h58.39.619,Delay dfiscounting,2024.2.4,60.06218838792312,2024-11-19 16h58.51.942008 +0530,
15,35,13,42,0,6,l,0.4993360000080429,None,6,0,42,1,100.9710969000007,,100.9596687000012,100.9710969000007,101.97156299999915,101.97156299999915,101.97156299999915,102.47287940001115,l,0.4993360000080429,None,,participant 3,001,2024-11-19_16h58.39.619,Delay dfiscounting,2024.2.4,60.06218838792312,2024-11-19 16h58.51.942008 +0530,
40,55,62,43,1,6,l,0.6829073999542743,None,6,1,43,3,102.48744689999148,,102.47666589997243,102.48744689999148,103.48775410000235,103.48775410000235,103.48775410000235,104.17227449995698,l,0.6829073999542743,None,,participant 3,001,2024-11-19_16h58.39.619,Delay dfiscounting,2024.2.4,60.06218838792312,2024-11-19 16h58.51.942008 +0530,
49,60,89,44,2,6,l,0.7323192000039853,None,6,2,44,4,104.18737249996047,,104.17588449997129,104.18737249996047,105.1868179999874,105.1868179999874,105.1868179999874,105.92110229999525,l,0.7323192000039853,None,,participant 3,001,2024-11-19_16h58.39.619,Delay dfiscounting,2024.2.4,60.06218838792312,2024-11-19 16h58.51.942008 +0530,
11,30,7,45,3,6,l,0.7665952000534162,None,6,3,45,0,105.93567289999919,,105.92455830000108,105.93567289999919,106.93624609999824,106.93624609999824,106.93624609999824,107.7045590999769,l,0.7665952000534162,None,,participant 3,001,2024-11-19_16h58.39.619,Delay dfiscounting,2024.2.4,60.06218838792312,2024-11-19 16h58.51.942008 +0530,
67,75,119,46,4,6,t,0.3622785999905318,None,6,4,46,5,107.71831669996027,,107.70798730000388,107.71831669996027,108.71998559997883,108.71998559997883,108.71998559997883,109.08600770001067,t,0.3622785999905318,None,,participant 3,001,2024-11-19_16h58.39.619,Delay dfiscounting,2024.2.4,60.06218838792312,2024-11-19 16h58.51.942008 +0530,
78,80,162,47,5,6,l,0.5027092000236735,None,6,5,47,6,109.10098409996135,,109.08906249998836,109.10098409996135,110.10137639997993,110.10137639997993,110.10137639997993,110.61874070001068,l,0.5027092000236735,None,,participant 3,001,2024-11-19_16h58.39.619,Delay dfiscounting,2024.2.4,60.06218838792312,2024-11-19 16h58.51.942008 +0530,
27,50,21,48,6,6,l,0.5777956999954768,None,6,6,48,2,110.63398129999405,,110.62189969996689,110.63398129999405,111.63424419995863,111.63424419995863,111.63424419995863,112.21819059998961,l,0.5777956999954768,None,,participant 3,001,2024-11-19_16h58.39.619,Delay dfiscounting,2024.2.4,60.06218838792312,2024-11-19 16h58.51.942008 +0530,
67,75,119,49,0,7,t,0.9269316000281833,None,7,0,49,5,112.2333009999711,,112.2216515999753,112.2333009999711,113.2333612999646,113.2333612999646,113.2333612999646,114.16714169998886,t,0.9269316000281833,None,,participant 3,001,2024-11-19_16h58.39.619,Delay dfiscounting,2024.2.4,60.06218838792312,2024-11-19 16h58.51.942008 +0530,
40,55,62,50,1,7,l,0.46847599995089695,None,7,1,50,3,114.18206479999935,,114.17012709996197,114.18206479999935,115.18237160000717,115.18237160000717,115.18237160000717,115.66706859995611,l,0.46847599995089695,None,,participant 3,001,2024-11-19_16h58.39.619,Delay dfiscounting,2024.2.4,60.06218838792312,2024-11-19 16h58.51.942008 +0530,
11,30,7,51,2,7,l,0.421016399981454,None,7,2,51,0,115.6817224000115,,115.67036629997892,115.6817224000115,116.68180039996514,116.68180039996514,116.68180039996514,117.11585770000238,l,0.421016399981454,None,,participant 3,001,2024-11-19_16h58.39.619,Delay dfiscounting,2024.2.4,60.06218838792312,2024-11-19 16h58.51.942008 +0530,
49,60,89,52,3,7,l,0.5352725000120699,None,7,3,52,4,117.13159579999046,,117.11949620000087,117.13159579999046,118.1313180999714,118.1313180999714,118.1313180999714,118.68203989998437,l,0.5352725000120699,None,,participant 3,001,2024-11-19_16h58.39.619,Delay dfiscounting,2024.2.4,60.06218838792312,2024-11-19 16h58.51.942008 +0530,
15,35,13,53,4,7,l,1.1672222000197507,None,7,4,53,1,118.69680089998292,,118.6856544999755,118.69680089998292,119.68145430000732,119.68145430000732,119.69687379995594,120.8642348999856,l,1.1672222000197507,None,,participant 3,001,2024-11-19_16h58.39.619,Delay dfiscounting,2024.2.4,60.06218838792312,2024-11-19 16h58.51.942008 +0530,
78,80,162,54,5,7,t,3.9164035000139847,None,7,5,54,6,120.87940019997768,,120.86725959996693,120.87940019997768,121.8798435999779,121.8798435999779,121.8798435999779,125.81231229996774,t,3.9164035000139847,None,123.89554359996691,participant 3,001,2024-11-19_16h58.39.619,Delay dfiscounting,2024.2.4,60.06218838792312,2024-11-19 16h58.51.942008 +0530,
27,50,21,55,6,7,l,0.47087800002191216,None,7,6,55,2,125.82708499999717,,125.81576729996596,125.82708499999717,126.82741739996709,126.82741739996709,126.82741739996709,127.311931299977,l,0.47087800002191216,None,,participant 3,001,2024-11-19_16h58.39.619,Delay dfiscounting,2024.2.4,60.06218838792312,2024-11-19 16h58.51.942008 +0530,
11,30,7,56,0,8,l,0.4384305999847129,None,8,0,56,0,127.32671009999467,,127.31482249998953,127.32671009999467,128.32668219995685,128.32668219995685,128.32668219995685,128.77776440000162,l,0.4384305999847129,None,,participant 3,001,2024-11-19_16h58.39.619,Delay dfiscounting,2024.2.4,60.06218838792312,2024-11-19 16h58.51.942008 +0530,
49,60,89,57,1,8,l,0.39494600001489744,None,8,1,57,4,128.79254369996488,,128.78161499998532,128.79254369996488,129.79289250000147,129.79289250000147,129.79289250000147,130.193317199999,l,0.39494600001489744,None,,participant 3,001,2024-11-19_16h58.39.619,Delay dfiscounting,2024.2.4,60.06218838792312,2024-11-19 16h58.51.942008 +0530,
40,55,62,58,2,8,l,0.3166013999725692,None,8,2,58,3,130.2088752000127,,130.1964461999596,130.2088752000127,131.20908559998497,131.20908559998497,131.20908559998497,131.52705360000255,l,0.3166013999725692,None,,participant 3,001,2024-11-19_16h58.39.619,Delay dfiscounting,2024.2.4,60.06218838792312,2024-11-19 16h58.51.942008 +0530,
15,35,13,59,3,8,l,0.3707183999940753,None,8,3,59,1,131.54134170000907,,131.53045919997385,131.54134170000907,132.5416416999651,132.5416416999651,132.5416416999651,132.92603899998358,l,0.3707183999940753,None,,participant 3,001,2024-11-19_16h58.39.619,Delay dfiscounting,2024.2.4,60.06218838792312,2024-11-19 16h58.51.942008 +0530,
27,50,21,60,4,8,l,0.31072449998464435,None,8,4,60,2,132.94138799997745,,132.92911329999333,132.94138799997745,133.94091169995954,133.94091169995954,133.94091169995954,134.25833579996834,l,0.31072449998464435,None,,participant 3,001,2024-11-19_16h58.39.619,Delay dfiscounting,2024.2.4,60.06218838792312,2024-11-19 16h58.51.942008 +0530,
67,75,119,61,5,8,t,0.5215976000181399,None,8,5,61,5,134.27361279999604,,134.26200039999094,134.27361279999604,135.25717429997167,135.25717429997167,135.2740863999934,135.79185320000397,t,0.5215976000181399,None,,participant 3,001,2024-11-19_16h58.39.619,Delay dfiscounting,2024.2.4,60.06218838792312,2024-11-19 16h58.51.942008 +0530,
78,80,162,62,6,8,l,0.47896730003412813,None,8,6,62,6,135.80616360000568,,135.79477579996455,135.80616360000568,136.8065412999713,136.8065412999713,136.8065412999713,137.29134229995543,l,0.47896730003412813,None,,participant 3,001,2024-11-19_16h58.39.619,Delay dfiscounting,2024.2.4,60.06218838792312,2024-11-19 16h58.51.942008 +0530,
49,60,89,63,0,9,l,0.519090200017672,None,9,0,63,4,137.30584409995936,,137.29578960000072,137.30584409995936,138.30582469998626,138.30582469998626,138.30582469998626,138.83959799999138,l,0.519090200017672,None,,participant 3,001,2024-11-19_16h58.39.619,Delay dfiscounting,2024.2.4,60.06218838792312,2024-11-19 16h58.51.942008 +0530,
27,50,21,64,1,9,l,0.44442949997028336,None,9,1,64,2,138.85478369996417,,138.84257129998878,138.85478369996417,139.85610430000816,139.85610430000816,139.85610430000816,140.3063003999996,l,0.44442949997028336,None,,participant 3,001,2024-11-19_16h58.39.619,Delay dfiscounting,2024.2.4,60.06218838792312,2024-11-19 16h58.51.942008 +0530,
40,55,62,65,2,9,l,0.44131780002499,None,9,2,65,3,140.32108949997928,,140.30987329996424,140.32108949997928,141.3211248999578,141.3211248999578,141.3211248999578,141.77189899998484,l,0.44131780002499,None,,participant 3,001,2024-11-19_16h58.39.619,Delay dfiscounting,2024.2.4,60.06218838792312,2024-11-19 16h58.51.942008 +0530,
11,30,7,66,3,9,l,0.41107680002460256,None,9,3,66,0,141.78686009999365,,141.7748525000061,141.78686009999365,142.7873139999574,142.7873139999574,142.7873139999574,143.20458979997784,l,0.41107680002460256,None,,participant 3,001,2024-11-19_16h58.39.619,Delay dfiscounting,2024.2.4,60.06218838792312,2024-11-19 16h58.51.942008 +0530,
67,75,119,67,4,9,t,0.5528005000087433,None,9,4,67,5,143.21951279998757,,143.20817150000948,143.21951279998757,144.22023749997607,144.22023749997607,144.22023749997607,144.787585699989,t,0.5528005000087433,None,,participant 3,001,2024-11-19_16h58.39.619,Delay dfiscounting,2024.2.4,60.06218838792312,2024-11-19 16h58.51.942008 +0530,
78,80,162,68,5,9,t,0.5419719000346959,None,9,5,68,6,144.80241549998755,,144.7913058999693,144.80241549998755,145.80262149998453,145.80262149998453,145.80262149998453,146.3536014999845,t,0.5419719000346959,None,,participant 3,001,2024-11-19_16h58.39.619,Delay dfiscounting,2024.2.4,60.06218838792312,2024-11-19 16h58.51.942008 +0530,
15,35,13,69,6,9,l,0.6509710000245832,None,9,6,69,1,146.3683871999965,,146.35681550001027,146.3683871999965,147.36855419998756,147.36855419998756,147.36855419998756,148.03608359995997,l,0.6509710000245832,None,,participant 3,001,2024-11-19_16h58.39.619,Delay dfiscounting,2024.2.4,60.06218838792312,2024-11-19 16h58.51.942008 +0530,
15,35,13,70,0,10,l,0.4931707999785431,None,10,0,70,1,148.05145149998134,,148.0362662000116,148.05145149998134,149.051502599963,149.051502599963,149.051502599963,149.55180899996776,l,0.4931707999785431,None,,participant 3,001,2024-11-19_16h58.39.619,Delay dfiscounting,2024.2.4,60.06218838792312,2024-11-19 16h58.51.942008 +0530,
49,60,89,71,1,10,l,0.4608433999819681,None,10,1,71,4,149.5670134999673,,149.5556294999551,149.5670134999673,150.56788300001062,150.56788300001062,150.56788300001062,151.03542239998933,l,0.4608433999819681,None,,participant 3,001,2024-11-19_16h58.39.619,Delay dfiscounting,2024.2.4,60.06218838792312,2024-11-19 16h58.51.942008 +0530,
67,75,119,72,2,10,t,0.4770009000203572,None,10,2,72,5,151.049551300006,,151.03861649997998,151.049551300006,152.05036529997597,152.05036529997597,152.05036529997597,152.53437030001078,t,0.4770009000203572,None,,participant 3,001,2024-11-19_16h58.39.619,Delay dfiscounting,2024.2.4,60.06218838792312,2024-11-19 16h58.51.942008 +0530,
40,55,62,73,3,10,l,0.4020077000022866,None,10,3,73,3,152.54887329996563,,152.53778819995932,152.54887329996563,153.54886519996217,153.54886519996217,153.54886519996217,153.9663578000036,l,0.4020077000022866,None,,participant 3,001,2024-11-19_16h58.39.619,Delay dfiscounting,2024.2.4,60.06218838792312,2024-11-19 16h58.51.942008 +0530,
11,30,7,74,4,10,l,0.35168459999840707,None,10,4,74,0,153.98171129997354,,153.96934859995963,153.98171129997354,154.9813354999642,154.9813354999642,154.9813354999642,155.34902649995638,l,0.35168459999840707,None,,participant 3,001,2024-11-19_16h58.39.619,Delay dfiscounting,2024.2.4,60.06218838792312,2024-11-19 16h58.51.942008 +0530,
27,50,21,75,5,10,l,0.37774259998695925,None,10,5,75,2,155.36430299998028,,155.35225579998223,155.36430299998028,156.36411989998305,156.36411989998305,156.36411989998305,156.7479759999551,l,0.37774259998695925,None,,participant 3,001,2024-11-19_16h58.39.619,Delay dfiscounting,2024.2.4,60.06218838792312,2024-11-19 16h58.51.942008 +0530,
78,80,162,76,6,10,l,0.30520599998999387,None,10,6,76,6,156.76375240000198,,156.75083529995754,156.76375240000198,157.74722859996837,157.74722859996837,157.76380919996882,158.06402379996143,l,0.30520599998999387,None,,participant 3,001,2024-11-19_16h58.39.619,Delay dfiscounting,2024.2.4,60.06218838792312,2024-11-19 16h58.51.942008 +0530,
67,75,119,77,0,11,t,0.38844730000710115,None,11,0,77,5,158.07996100001037,,158.06746920000296,158.07996100001037,159.08009609999135,159.08009609999135,159.08009609999135,159.48027130000992,t,0.38844730000710115,None,,participant 3,001,2024-11-19_16h58.39.619,Delay dfiscounting,2024.2.4,60.06218838792312,2024-11-19 16h58.51.942008 +0530,
78,80,162,78,1,11,t,0.29913980001583695,None,11,1,78,6,159.49594489997253,,159.4831092999666,159.49594489997253,160.49561389995506,160.49561389995506,160.49561389995506,160.79670509998687,t,0.29913980001583695,None,,participant 3,001,2024-11-19_16h58.39.619,Delay dfiscounting,2024.2.4,60.06218838792312,2024-11-19 16h58.51.942008 +0530,
40,55,62,79,2,11,l,0.37089979997836053,None,11,2,79,3,160.81214160000673,,160.8000919999904,160.81214160000673,161.81153060001088,161.81153060001088,161.81153060001088,162.19606059999205,l,0.37089979997836053,None,,participant 3,001,2024-11-19_16h58.39.619,Delay dfiscounting,2024.2.4,60.06218838792312,2024-11-19 16h58.51.942008 +0530,
15,35,13,80,3,11,l,0.5178839999716729,None,11,3,80,1,162.2116864999989,,162.19938629999524,162.2116864999989,163.21096769999713,163.21096769999713,163.21096769999713,163.74482119997265,l,0.5178839999716729,None,,participant 3,001,2024-11-19_16h58.39.619,Delay dfiscounting,2024.2.4,60.06218838792312,2024-11-19 16h58.51.942008 +0530,
27,50,21,81,4,11,l,0.4240202999790199,None,11,4,81,2,163.7608902999782,,163.74805840000045,163.7608902999782,164.74407839996275,164.74407839996275,164.76020580000477,165.1784147999715,l,0.4240202999790199,None,,participant 3,001,2024-11-19_16h58.39.619,Delay dfiscounting,2024.2.4,60.06218838792312,2024-11-19 16h58.51.942008 +0530,
11,30,7,82,5,11,l,0.4665301999775693,None,11,5,82,0,165.19377779995557,,165.18142599996645,165.19377779995557,166.1934706000029,166.1934706000029,166.1934706000029,166.6614508999628,l,0.4665301999775693,None,,participant 3,001,2024-11-19_16h58.39.619,Delay dfiscounting,2024.2.4,60.06218838792312,2024-11-19 16h58.51.942008 +0530,
49,60,89,83,6,11,l,0.6803200999856927,None,11,6,83,4,166.67637589998776,,166.66538650001166,166.67637589998776,167.6755801999825,167.6755801999825,167.6755801999825,168.3599089999916,l,0.6803200999856927,None,,participant 3,001,2024-11-19_16h58.39.619,Delay dfiscounting,2024.2.4,60.06218838792312,2024-11-19 16h58.51.942008 +0530,
78,80,162,84,0,12,t,0.35310670000035316,None,12,0,84,6,168.3753802999854,,168.36280379997334,168.3753802999854,169.37485859997105,169.37485859997105,169.37485859997105,169.7422821999644,t,0.35310670000035316,None,,participant 3,001,2024-11-19_16h58.39.619,Delay dfiscounting,2024.2.4,60.06218838792312,2024-11-19 16h58.51.942008 +0530,
67,75,119,85,1,12,t,0.6156904000090435,None,12,1,85,5,169.75811529997736,,169.74576079996768,169.75811529997736,170.75791369995568,170.75791369995568,170.75791369995568,171.37564350001048,t,0.6156904000090435,None,,participant 3,001,2024-11-19_16h58.39.619,Delay dfiscounting,2024.2.4,60.06218838792312,2024-11-19 16h58.51.942008 +0530,
40,55,62,86,2,12,l,0.4934879000065848,None,12,2,86,3,171.390737299982,,171.37884729995858,171.390737299982,172.39024479995715,172.39024479995715,172.39024479995715,172.89095349999843,l,0.4934879000065848,None,,participant 3,001,2024-11-19_16h58.39.619,Delay dfiscounting,2024.2.4,60.06218838792312,2024-11-19 16h58.51.942008 +0530,
49,60,89,87,3,12,l,0.4070874999742955,None,12,3,87,4,172.90718209999613,,172.8951958999969,172.90718209999613,173.90632899996126,173.90632899996126,173.90632899996126,174.32404879998649,l,0.4070874999742955,None,,participant 3,001,2024-11-19_16h58.39.619,Delay dfiscounting,2024.2.4,60.06218838792312,2024-11-19 16h58.51.942008 +0530,
27,50,21,88,4,12,l,0.3780927999760024,None,12,4,88,2,174.33964339998784,,174.32736369996564,174.33964339998784,175.33902469999157,175.33902469999157,175.33902469999157,175.72347169998102,l,0.3780927999760024,None,,participant 3,001,2024-11-19_16h58.39.619,Delay dfiscounting,2024.2.4,60.06218838792312,2024-11-19 16h58.51.942008 +0530,
11,30,7,89,5,12,l,0.3686697000521235,None,12,5,89,0,175.7391224000021,,175.7268980999943,175.7391224000021,176.73834789998364,176.73834789998364,176.73834789998364,177.12241750000976,l,0.3686697000521235,None,,participant 3,001,2024-11-19_16h58.39.619,Delay dfiscounting,2024.2.4,60.06218838792312,2024-11-19 16h58.51.942008 +0530,
15,35,13,90,6,12,l,0.33579400001326576,None,12,6,90,1,177.13850900001125,,177.12540959997568,177.13850900001125,178.13777789997403,178.13777789997403,178.13777789997403,178.48848179995548,l,0.33579400001326576,None,,participant 3,001,2024-11-19_16h58.39.619,Delay dfiscounting,2024.2.4,60.06218838792312,2024-11-19 16h58.51.942008 +0530,
49,60,89,91,0,13,l,0.37621120002586395,None,13,0,91,4,178.50464020000072,,178.49246749997837,178.50464020000072,179.50415559997782,179.50415559997782,179.50415559997782,179.8879891000106,l,0.37621120002586395,None,,participant 3,001,2024-11-19_16h58.39.619,Delay dfiscounting,2024.2.4,60.06218838792312,2024-11-19 16h58.51.942008 +0530,
67,75,119,92,1,13,t,0.6188164000050165,None,13,1,92,5,179.9039891999564,,179.89141949999612,179.9039891999564,180.88661909999792,180.88661909999792,180.9035866999766,181.52072470000712,t,0.6188164000050165,None,,participant 3,001,2024-11-19_16h58.39.619,Delay dfiscounting,2024.2.4,60.06218838792312,2024-11-19 16h58.51.942008 +0530,
27,50,21,93,2,13,l,0.5462817000225186,None,13,2,93,2,181.53712509997422,,181.52403470000718,181.53712509997422,182.51971610001056,182.51971610001056,182.5364392999909,183.07042509998428,l,0.5462817000225186,None,,participant 3,001,2024-11-19_16h58.39.619,Delay dfiscounting,2024.2.4,60.06218838792312,2024-11-19 16h58.51.942008 +0530,
78,80,162,94,3,13,t,0.5041733999969438,None,13,3,94,6,183.08598009997513,,183.07379120000405,183.08598009997513,184.08550429996103,184.08550429996103,184.08550429996103,184.60344749997603,t,0.5041733999969438,None,,participant 3,001,2024-11-19_16h58.39.619,Delay dfiscounting,2024.2.4,60.06218838792312,2024-11-19 16h58.51.942008 +0530,
11,30,7,95,4,13,l,0.5197843000059947,None,13,4,95,0,184.61833480000496,,184.60690189996967,184.61833480000496,185.6181818000041,185.6181818000041,185.6181818000041,186.15228879998904,l,0.5197843000059947,None,,participant 3,001,2024-11-19_16h58.39.619,Delay dfiscounting,2024.2.4,60.06218838792312,2024-11-19 16h58.51.942008 +0530,
15,35,13,96,5,13,l,0.28800140001112595,None,13,5,96,1,186.16793499997584,,186.1552546999883,186.16793499997584,187.16738160001114,187.16738160001114,187.16738160001114,187.46802099997876,l,0.28800140001112595,None,,participant 3,001,2024-11-19_16h58.39.619,Delay dfiscounting,2024.2.4,60.06218838792312,2024-11-19 16h58.51.942008 +0530,
40,55,62,97,6,13,l,0.3561039999476634,None,13,6,97,3,187.48373919998994,,187.4713982999674,187.48373919998994,188.48328079999192,188.48328079999192,188.48328079999192,188.85077499999898,l,0.3561039999476634,None,,participant 3,001,2024-11-19_16h58.39.619,Delay dfiscounting,2024.2.4,60.06218838792312,2024-11-19 16h58.51.942008 +0530,
49,60,89,98,0,14,l,0.32403670001076534,None,14,0,98,4,188.86674409999978,,188.8542226999998,188.86674409999978,189.86607559997356,189.86607559997356,189.86607559997356,190.20019679999677,l,0.32403670001076534,None,,participant 3,001,2024-11-19_16h58.39.619,Delay dfiscounting,2024.2.4,60.06218838792312,2024-11-19 16h58.51.942008 +0530,
27,50,21,99,1,14,l,1.5414259000099264,None,14,1,99,2,190.2159562999732,,190.2036752999993,190.2159562999732,191.2158408999676,191.2158408999676,191.2158408999676,192.76639699999942,l,1.5414259000099264,None,,participant 3,001,2024-11-19_16h58.39.619,Delay dfiscounting,2024.2.4,60.06218838792312,2024-11-19 16h58.51.942008 +0530,
15,35,13,100,2,14,l,0.5110962999751791,None,14,2,100,1,192.7815058999695,,192.7694072999875,192.7815058999695,193.7812668000115,193.7812668000115,193.7812668000115,194.29837979999138,l,0.5110962999751791,None,,participant 3,001,2024-11-19_16h58.39.619,Delay dfiscounting,2024.2.4,60.06218838792312,2024-11-19 16h58.51.942008 +0530,
40,55,62,101,3,14,l,0.7830522999865934,None,14,3,101,3,194.31446339999093,,194.30157359997975,194.31446339999093,195.31374479999067,195.31374479999067,195.31374479999067,196.0984789999784,l,0.7830522999865934,None,,participant 3,001,2024-11-19_16h58.39.619,Delay dfiscounting,2024.2.4,60.06218838792312,2024-11-19 16h58.51.942008 +0530,
67,75,119,102,4,14,t,0.7409497000044212,None,14,4,102,5,196.11360779998358,,196.10205779998796,196.11360779998358,197.11351629998535,197.11351629998535,197.11351629998535,197.86377970001195,t,0.7409497000044212,None,,participant 3,001,2024-11-19_16h58.39.619,Delay dfiscounting,2024.2.4,60.06218838792312,2024-11-19 16h58.51.942008 +0530,
11,30,7,103,5,14,l,0.4022255999734625,None,14,5,103,0,197.87961790000554,,197.8670006999746,197.87961790000554,198.87920139997732,198.87920139997732,198.87920139997732,199.29650930000935,l,0.4022255999734625,None,,participant 3,001,2024-11-19_16h58.39.619,Delay dfiscounting,2024.2.4,60.06218838792312,2024-11-19 16h58.51.942008 +0530,
78,80,162,104,6,14,t,0.45530909998342395,None,14,6,104,6,199.31208519998472,,199.29990889999317,199.31208519998472,200.3118972000084,200.3118972000084,200.3118972000084,200.7796679000021,t,0.45530909998342395,None,,participant 3,001,2024-11-19_16h58.39.619,Delay dfiscounting,2024.2.4,60.06218838792312,2024-11-19 16h58.51.942008 +0530,
67,75,119,105,0,15,l,0.45983299997169524,None,15,0,105,5,200.79482919996371,,200.78313150000758,200.79482919996371,201.7945479999762,201.7945479999762,201.7945479999762,202.26178349996917,l,0.45983299997169524,None,,participant 3,001,2024-11-19_16h58.39.619,Delay dfiscounting,2024.2.4,60.06218838792312,2024-11-19 16h58.51.942008 +0530,
11,30,7,106,1,15,l,0.4014331999933347,None,15,1,106,0,202.27776839997387,,202.26513919996796,202.27776839997387,203.27718119998462,203.27718119998462,203.27718119998462,203.69478660001187,l,0.4014331999933347,None,,participant 3,001,2024-11-19_16h58.39.619,Delay dfiscounting,2024.2.4,60.06218838792312,2024-11-19 16h58.51.942008 +0530,
49,60,89,107,2,15,l,0.4086150000221096,None,15,2,107,4,203.7102409999934,,203.69893829996,203.7102409999934,204.70995339995716,204.70995339995716,204.70995339995716,205.12744630000088,l,0.4086150000221096,None,,participant 3,001,2024-11-19_16h58.39.619,Delay dfiscounting,2024.2.4,60.06218838792312,2024-11-19 16h58.51.942008 +0530,
15,35,13,108,3,15,l,0.858717399998568,None,15,3,108,1,205.14289859996643,,205.1304642999894,205.14289859996643,206.1429882000084,206.1429882000084,206.1429882000084,207.0100753000006,l,0.858717399998568,None,,participant 3,001,2024-11-19_16h58.39.619,Delay dfiscounting,2024.2.4,60.06218838792312,2024-11-19 16h58.51.942008 +0530,
27,50,21,109,4,15,l,0.583697399997618,None,15,4,109,2,207.0253302999772,,207.01342440000735,207.0253302999772,208.02505679999013,208.02505679999013,208.02505679999013,208.62559979996877,l,0.583697399997618,None,,participant 3,001,2024-11-19_16h58.39.619,Delay dfiscounting,2024.2.4,60.06218838792312,2024-11-19 16h58.51.942008 +0530,
78,80,162,110,5,15,t,0.5582373000215739,None,15,5,110,6,208.64145559997996,,208.62848899996607,208.64145559997996,209.64082179998513,209.64082179998513,209.64082179998513,210.2087299999548,t,0.5582373000215739,None,,participant 3,001,2024-11-19_16h58.39.619,Delay dfiscounting,2024.2.4,60.06218838792312,2024-11-19 16h58.51.942008 +0530,
40,55,62,111,6,15,l,0.46944739995524287,None,15,6,111,3,210.22407519997796,,210.21247339999536,210.22407519997796,211.22349720000057,211.22349720000057,211.22349720000057,211.70792319998145,l,0.46944739995524287,None,,participant 3,001,2024-11-19_16h58.39.619,Delay dfiscounting,2024.2.4,60.06218838792312,2024-11-19 16h58.51.942008 +0530,
40,55,62,112,0,16,t,3.4186275000101887,None,16,0,112,3,211.7235287000076,,211.7081879999605,211.7235287000076,212.72289779997664,212.72289779997664,212.72289779997664,216.15619289997267,t,3.4186275000101887,None,214.72202669997932,participant 3,001,2024-11-19_16h58.39.619,Delay dfiscounting,2024.2.4,60.06218838792312,2024-11-19 16h58.51.942008 +0530,
11,30,7,113,1,16,t,6.798560199968051,None,16,1,113,0,216.17152500001248,,216.15946009999607,216.17152500001248,217.17130669998005,217.17130669998005,217.17130669998005,223.98585969995474,t,6.798560199968051,None,219.17009059997508,participant 3,001,2024-11-19_16h58.39.619,Delay dfiscounting,2024.2.4,60.06218838792312,2024-11-19 16h58.51.942008 +0530,
15,35,13,114,2,16,l,2.464785500022117,None,16,2,114,1,224.00165130000096,,223.98904969997238,224.00165130000096,225.00097029999597,225.00097029999597,225.00097029999597,227.4677070999751,l,2.464785500022117,None,227.00021470000502,participant 3,001,2024-11-19_16h58.39.619,Delay dfiscounting,2024.2.4,60.06218838792312,2024-11-19 16h58.51.942008 +0530,
67,75,119,115,3,16,t,0.7931974999955855,None,16,3,115,5,227.4834816000075,,227.47135830001207,227.4834816000075,228.4829780999571,228.4829780999571,228.4829780999571,229.2836501999991,t,0.7931974999955855,None,,participant 3,001,2024-11-19_16h58.39.619,Delay dfiscounting,2024.2.4,60.06218838792312,2024-11-19 16h58.51.942008 +0530,
27,50,21,116,4,16,l,0.6300958000356331,None,16,4,116,2,229.2992174999672,,229.28661640000064,229.2992174999672,230.29881800001021,230.29881800001021,230.29881800001021,230.93351189995883,l,0.6300958000356331,None,,participant 3,001,2024-11-19_16h58.39.619,Delay dfiscounting,2024.2.4,60.06218838792312,2024-11-19 16h58.51.942008 +0530,
78,80,162,117,5,16,t,2.0984728999901563,None,16,5,117,6,230.94955279998248,,230.93664579995675,230.94955279998248,231.94825079996372,231.94825079996372,231.9645465000067,234.0484589000116,t,2.0984728999901563,None,233.96408949996112,participant 3,001,2024-11-19_16h58.39.619,Delay dfiscounting,2024.2.4,60.06218838792312,2024-11-19 16h58.51.942008 +0530,
49,60,89,118,6,16,l,0.3477716000052169,None,16,6,118,4,234.0637814999791,,234.05215679999674,234.0637814999791,235.06324789999053,235.06324789999053,235.06324789999053,235.4139431999647,l,0.3477716000052169,None,,participant 3,001,2024-11-19_16h58.39.619,Delay dfiscounting,2024.2.4,60.06218838792312,2024-11-19 16h58.51.942008 +0530,
78,80,162,119,0,17,t,0.4884081000345759,None,17,0,119,6,235.42974099999992,,235.41727789997822,235.42974099999992,236.4292993999552,236.4292993999552,236.4292993999552,236.93043939996278,t,0.4884081000345759,None,,participant 3,001,2024-11-19_16h58.39.619,Delay dfiscounting,2024.2.4,60.06218838792312,2024-11-19 16h58.51.942008 +0530,
67,75,119,120,1,17,t,0.48220969998510554,None,17,1,120,5,236.94578720000573,,236.93355279997922,236.94578720000573,237.94548160000704,237.94548160000704,237.94548160000704,238.42973029997665,t,0.48220969998510554,None,,participant 3,001,2024-11-19_16h58.39.619,Delay dfiscounting,2024.2.4,60.06218838792312,2024-11-19 16h58.51.942008 +0530,
49,60,89,121,2,17,l,0.41145549999782816,None,17,2,121,4,238.44545989995822,,238.43351790000452,238.44545989995822,239.44496649998473,239.44496649998473,239.44496649998473,239.86204909998924,l,0.41145549999782816,None,,participant 3,001,2024-11-19_16h58.39.619,Delay dfiscounting,2024.2.4,60.06218838792312,2024-11-19 16h58.51.942008 +0530,
15,35,13,122,3,17,l,0.4011510999989696,None,17,3,122,1,239.878032299981,,239.86506639997242,239.878032299981,240.87739739997778,240.87739739997778,240.87739739997778,241.2951598999789,l,0.4011510999989696,None,,participant 3,001,2024-11-19_16h58.39.619,Delay dfiscounting,2024.2.4,60.06218838792312,2024-11-19 16h58.51.942008 +0530,
40,55,62,123,4,17,l,0.3948511999915354,None,17,4,123,3,241.31106939999154,,241.29840889998013,241.31106939999154,242.31010219996097,242.31010219996097,242.31010219996097,242.71207919996232,l,0.3948511999915354,None,,participant 3,001,2024-11-19_16h58.39.619,Delay dfiscounting,2024.2.4,60.06218838792312,2024-11-19 16h58.51.942008 +0530,
27,50,21,124,5,17,l,0.38528869999572635,None,17,5,124,2,242.72689789999276,,242.71511270001065,242.72689789999276,243.72666609997395,243.72666609997395,243.72666609997395,244.12713300000178,l,0.38528869999572635,None,,participant 3,001,2024-11-19_16h58.39.619,Delay dfiscounting,2024.2.4,60.06218838792312,2024-11-19 16h58.51.942008 +0530,
11,30,7,125,6,17,l,0.4381091000395827,None,17,6,125,0,244.14264519995777,,244.13035709998803,244.14264519995777,245.12587849999545,245.12587849999545,245.142932799994,245.57647219998762,l,0.4381091000395827,None,,participant 3,001,2024-11-19_16h58.39.619,Delay dfiscounting,2024.2.4,60.06218838792312,2024-11-19 16h58.51.942008 +0530,
49,60,89,126,0,18,l,0.39825230004498735,None,18,0,126,4,245.59231549996184,,245.58017629996175,245.59231549996184,246.59182339999825,246.59182339999825,246.59182339999825,246.99246439995477,l,0.39825230004498735,None,,participant 3,001,2024-11-19_16h58.39.619,Delay dfiscounting,2024.2.4,60.06218838792312,2024-11-19 16h58.51.942008 +0530,
40,55,62,127,1,18,,,,18,1,127,3,247.00810139998794,,246.9961089999997,247.00810139998794,248.00849589996506,248.00849589996506,248.00849589996506,,,,,,,,,,,,,
