reward_today,future_reward,delay,thisN,thisTrialN,thisRepN,key_resp.keys,key_resp.rt,key_resp.duration,trials.thisRepN,trials.thisTrialN,trials.thisN,trials.thisIndex,thisRow.t,notes,trial.started,fixation.started,text.started,key_resp.started,fixation.stopped,text.stopped,trial.stopped,trials.key_resp.keys,trials.key_resp.rt,trials.key_resp.duration,participant,session,date,expName,psychopyVersion,frameRate,expStart,
27,50,21,0,0,0,l,2.5770243000006303,None,0,0,0,2,0.07295699999667704,,0.056876499962527305,0.07295699999667704,1.0050124999834225,1.0050124999834225,1.0881720999605022,3.004250499943737,3.5905038999626413,l,2.5770243000006303,None,706337,001,2024-11-18_17h53.17.638,Delay dfiscounting,2024.2.4,59.609604766952685,2024-11-18 17h53.28.823402 +0530,
11,30,7,1,1,0,l,1.890244799957145,None,0,1,1,0,3.6039713999489322,,3.593948299996555,3.6039713999489322,4.603432399977464,4.603432399977464,4.603432399977464,,6.503220899961889,l,1.890244799957145,None,706337,001,2024-11-18_17h53.17.638,Delay dfiscounting,2024.2.4,59.609604766952685,2024-11-18 17h53.28.823402 +0530,
40,55,62,2,2,0,t,1.1890514999977313,None,0,2,2,3,6.5193713999469765,,6.506752299959771,6.5193713999469765,7.518732399970759,7.518732399970759,7.518732399970759,,8.719115399988368,t,1.1890514999977313,None,706337,001,2024-11-18_17h53.17.638,Delay dfiscounting,2024.2.4,59.609604766952685,2024-11-18 17h53.28.823402 +0530,
49,60,89,3,3,0,t,0.8877608000184409,None,0,3,3,4,8.734946199983824,,8.723589499946684,8.734946199983824,9.717841199948452,9.717841199948452,9.734518399985973,,10.618177599972114,t,0.8877608000184409,None,706337,001,2024-11-18_17h53.17.638,Delay dfiscounting,2024.2.4,59.609604766952685,2024-11-18 17h53.28.823402 +0530,
67,75,119,4,4,0,l,0.49379209999460727,None,0,4,4,5,10.634226799942553,,10.620342699985486,10.634226799942553,11.633945899957325,11.633945899957325,11.633945899957325,,12.134100599971134,l,0.49379209999460727,None,706337,001,2024-11-18_17h53.17.638,Delay dfiscounting,2024.2.4,59.609604766952685,2024-11-18 17h53.28.823402 +0530,
15,35,13,5,5,0,t,0.9602343000005931,None,0,5,5,1,12.150182899960782,,12.13628289999906,12.150182899960782,13.133517199952621,13.133517199952621,13.150136799959,,14.099999599973671,t,0.9602343000005931,None,706337,001,2024-11-18_17h53.17.638,Delay dfiscounting,2024.2.4,59.609604766952685,2024-11-18 17h53.28.823402 +0530,
78,80,162,6,6,0,l,0.45442439999897033,None,0,6,6,6,14.11608939996222,,14.102633599948604,14.11608939996222,15.116049599950202,15.116049599950202,15.116049599950202,,15.582503599987831,l,0.45442439999897033,None,706337,001,2024-11-18_17h53.17.638,Delay dfiscounting,2024.2.4,59.609604766952685,2024-11-18 17h53.28.823402 +0530,
15,35,13,7,0,1,t,0.5170704000047408,None,1,0,7,1,15.599163199949544,,15.584711899980903,15.599163199949544,16.59810429997742,16.59810429997742,16.59810429997742,,17.11666449997574,t,0.5170704000047408,None,706337,001,2024-11-18_17h53.17.638,Delay dfiscounting,2024.2.4,59.609604766952685,2024-11-18 17h53.28.823402 +0530,
67,75,119,8,1,1,l,0.6812541999970563,None,1,1,8,5,17.13127779995557,,17.118907500000205,17.13127779995557,18.131561899965163,18.131561899965163,18.131561899965163,,18.81447699997807,l,0.6812541999970563,None,706337,001,2024-11-18_17h53.17.638,Delay dfiscounting,2024.2.4,59.609604766952685,2024-11-18 17h53.28.823402 +0530,
27,50,21,9,2,1,l,0.6332244999939576,None,1,2,9,2,18.830658999970183,,18.816750399942975,18.830658999970183,19.81352689996129,19.81352689996129,19.830224799981806,,20.447981099947356,l,0.6332244999939576,None,706337,001,2024-11-18_17h53.17.638,Delay dfiscounting,2024.2.4,59.609604766952685,2024-11-18 17h53.28.823402 +0530,
78,80,162,10,3,1,l,0.596236500015948,None,1,3,10,6,20.4633200999815,,20.45063419995131,20.4633200999815,21.462896399956662,21.462896399956662,21.462896399956662,,22.06320739997318,l,0.596236500015948,None,706337,001,2024-11-18_17h53.17.638,Delay dfiscounting,2024.2.4,59.609604766952685,2024-11-18 17h53.28.823402 +0530,
49,60,89,11,4,1,t,2.5314329999964684,None,1,4,11,4,22.079363799944986,,22.065573899948504,22.079363799944986,23.078823299962096,23.078823299962096,23.078823299962096,25.077877299976535,25.61183519999031,t,2.5314329999964684,None,706337,001,2024-11-18_17h53.17.638,Delay dfiscounting,2024.2.4,59.609604766952685,2024-11-18 17h53.28.823402 +0530,
40,55,62,12,5,1,l,1.904746999964118,None,1,5,12,3,25.62773119995836,,25.614208399958443,25.62773119995836,26.627576699946076,26.627576699946076,26.627576699946076,,28.543853599985596,l,1.904746999964118,None,706337,001,2024-11-18_17h53.17.638,Delay dfiscounting,2024.2.4,59.609604766952685,2024-11-18 17h53.28.823402 +0530,
11,30,7,13,6,1,l,2.0151167000294663,None,1,6,13,0,28.559798799979035,,28.546003499999642,28.559798799979035,29.560060499992687,29.560060499992687,29.560060499992687,31.57519029994728,31.576457599992864,l,2.0151167000294663,None,706337,001,2024-11-18_17h53.17.638,Delay dfiscounting,2024.2.4,59.609604766952685,2024-11-18 17h53.28.823402 +0530,
78,80,162,14,0,2,t,2.8569262999808416,None,2,0,14,6,31.591740599949844,,31.57960409997031,31.591740599949844,32.59137489995919,32.59137489995919,32.59137489995919,34.5903479999979,35.45745849999366,t,2.8569262999808416,None,706337,001,2024-11-18_17h53.17.638,Delay dfiscounting,2024.2.4,59.609604766952685,2024-11-18 17h53.28.823402 +0530,
27,50,21,15,1,2,l,2.135392200027127,None,2,1,15,2,35.473527599999215,,35.459722799947485,35.473527599999215,36.47346099995775,36.47346099995775,36.47346099995775,38.48873009998351,38.62263149995124,l,2.135392200027127,None,706337,001,2024-11-18_17h53.17.638,Delay dfiscounting,2024.2.4,59.609604766952685,2024-11-18 17h53.28.823402 +0530,
67,75,119,16,2,2,t,1.6466525999712758,None,2,2,16,5,38.63882959994953,,38.625112399982754,38.63882959994953,39.63830429996597,39.63830429996597,39.63830429996597,,41.28791639994597,t,1.6466525999712758,None,706337,001,2024-11-18_17h53.17.638,Delay dfiscounting,2024.2.4,59.609604766952685,2024-11-18 17h53.28.823402 +0530,
40,55,62,17,3,2,t,2.23951169999782,None,2,3,17,3,41.304359299945645,,41.29014539998025,41.304359299945645,42.28731319995131,42.28731319995131,42.304057999979705,44.30290689994581,44.53693169995677,t,2.23951169999782,None,706337,001,2024-11-18_17h53.17.638,Delay dfiscounting,2024.2.4,59.609604766952685,2024-11-18 17h53.28.823402 +0530,
11,30,7,18,4,2,l,1.293176000006497,None,2,4,18,0,44.55287929996848,,44.53945899999235,44.55287929996848,45.55236709996825,45.55236709996825,45.55236709996825,,46.85261249996256,l,1.293176000006497,None,706337,001,2024-11-18_17h53.17.638,Delay dfiscounting,2024.2.4,59.609604766952685,2024-11-18 17h53.28.823402 +0530,
49,60,89,19,5,2,l,1.7299106999998912,None,2,5,19,4,46.868631799996365,,46.855068299977574,46.868631799996365,47.85146119998535,47.85146119998535,47.86825099994894,,49.58460019994527,l,1.7299106999998912,None,706337,001,2024-11-18_17h53.17.638,Delay dfiscounting,2024.2.4,59.609604766952685,2024-11-18 17h53.28.823402 +0530,
15,35,13,20,6,2,l,2.0700806999811903,None,2,6,20,1,49.60077379998984,,49.58725579996826,49.60077379998984,50.600196499959566,50.600196499959566,50.600196499959566,52.59944359998917,52.68335049995221,l,2.0700806999811903,None,706337,001,2024-11-18_17h53.17.638,Delay dfiscounting,2024.2.4,59.609604766952685,2024-11-18 17h53.28.823402 +0530,
11,30,7,21,0,3,l,1.602604900021106,None,3,0,21,0,52.69938139995793,,52.685669099970255,52.69938139995793,53.698779099970125,53.698779099970125,53.698779099970125,,55.3156046999502,l,1.602604900021106,None,706337,001,2024-11-18_17h53.17.638,Delay dfiscounting,2024.2.4,59.609604766952685,2024-11-18 17h53.28.823402 +0530,
15,35,13,22,1,3,l,1.946930899983272,None,3,1,22,1,55.331586199987214,,55.31803709996166,55.331586199987214,56.31448849994922,56.31448849994922,56.331101699965075,,58.26394039997831,l,1.946930899983272,None,706337,001,2024-11-18_17h53.17.638,Delay dfiscounting,2024.2.4,59.609604766952685,2024-11-18 17h53.28.823402 +0530,
67,75,119,23,2,3,t,2.431840799981728,None,3,2,23,5,58.28021539998008,,58.26600879995385,58.28021539998008,59.263929899956565,59.263929899956565,59.279806299949996,61.27900509996107,61.712754699983634,t,2.431840799981728,None,706337,001,2024-11-18_17h53.17.638,Delay dfiscounting,2024.2.4,59.609604766952685,2024-11-18 17h53.28.823402 +0530,
40,55,62,24,3,3,l,1.4510146000538953,None,3,3,24,3,61.72905399999581,,61.71518419997301,61.72905399999581,62.71173199999612,62.71173199999612,62.72858969995286,,64.17832879995694,l,1.4510146000538953,None,706337,001,2024-11-18_17h53.17.638,Delay dfiscounting,2024.2.4,59.609604766952685,2024-11-18 17h53.28.823402 +0530,
27,50,21,25,4,3,l,1.1386906999978237,None,3,4,25,2,64.19433849997586,,64.18050489999587,64.19433849997586,65.1772349999519,65.1772349999519,65.19392189994687,,66.32815089996438,l,1.1386906999978237,None,706337,001,2024-11-18_17h53.17.638,Delay dfiscounting,2024.2.4,59.609604766952685,2024-11-18 17h53.28.823402 +0530,
49,60,89,26,5,3,t,2.655767599993851,None,3,5,26,4,66.34396759996889,,66.33084139996208,66.34396759996889,67.34295139997266,67.34295139997266,67.34295139997266,69.34216019994346,70.00901339994743,t,2.655767599993851,None,706337,001,2024-11-18_17h53.17.638,Delay dfiscounting,2024.2.4,59.609604766952685,2024-11-18 17h53.28.823402 +0530,
78,80,162,27,6,3,l,1.3951890000025742,None,3,6,27,6,70.02510209998582,,70.01163199997973,70.02510209998582,71.00803479994647,71.00803479994647,71.02473659999669,,72.40829169994686,l,1.3951890000025742,None,706337,001,2024-11-18_17h53.17.638,Delay dfiscounting,2024.2.4,59.609604766952685,2024-11-18 17h53.28.823402 +0530,
67,75,119,28,0,4,t,0.5902137000230141,None,4,0,28,5,72.42415329994401,,72.41067209996982,72.42415329994401,73.42380279995268,73.42380279995268,73.42380279995268,,74.02417309995508,t,0.5902137000230141,None,706337,001,2024-11-18_17h53.17.638,Delay dfiscounting,2024.2.4,59.609604766952685,2024-11-18 17h53.28.823402 +0530,
27,50,21,29,1,4,t,1.1174183000111952,None,4,1,29,2,74.04013819998363,,74.02647859998979,74.04013819998363,75.03967779997038,75.03967779997038,75.03967779997038,,76.17325869994238,t,1.1174183000111952,None,706337,001,2024-11-18_17h53.17.638,Delay dfiscounting,2024.2.4,59.609604766952685,2024-11-18 17h53.28.823402 +0530,
40,55,62,30,2,4,t,2.5359442999470048,None,4,2,30,3,76.18921289994614,,76.17565709998598,76.18921289994614,77.1887811999768,77.1887811999768,77.1887811999768,79.18797179998364,79.73826359998202,t,2.5359442999470048,None,706337,001,2024-11-18_17h53.17.638,Delay dfiscounting,2024.2.4,59.609604766952685,2024-11-18 17h53.28.823402 +0530,
49,60,89,31,3,4,l,1.5399192000040784,None,4,3,31,4,79.75427789997775,,79.74079159996472,79.75427789997775,80.75382899999386,80.75382899999386,80.75382899999386,,82.30397199996514,l,1.5399192000040784,None,706337,001,2024-11-18_17h53.17.638,Delay dfiscounting,2024.2.4,59.609604766952685,2024-11-18 17h53.28.823402 +0530,
78,80,162,32,4,4,t,1.3850983000011183,None,4,4,32,6,82.31987699994352,,82.30678079999052,82.31987699994352,83.30303169996478,83.30303169996478,83.31947249994846,,84.70298289996572,t,1.3850983000011183,None,706337,001,2024-11-18_17h53.17.638,Delay dfiscounting,2024.2.4,59.609604766952685,2024-11-18 17h53.28.823402 +0530,
11,30,7,33,5,4,l,2.382308300002478,None,4,5,33,0,84.71891499997582,,84.70520479994593,84.71891499997582,85.71880849997979,85.71880849997979,85.71880849997979,87.7175675999606,88.11780719994567,l,2.382308300002478,None,706337,001,2024-11-18_17h53.17.638,Delay dfiscounting,2024.2.4,59.609604766952685,2024-11-18 17h53.28.823402 +0530,
15,35,13,34,6,4,l,1.2119905999861658,None,4,6,34,1,88.13411579997046,,88.12045019998914,88.13411579997046,89.11693339998601,89.11693339998601,89.13363399996888,,90.33373299997766,l,1.2119905999861658,None,706337,001,2024-11-18_17h53.17.638,Delay dfiscounting,2024.2.4,59.609604766952685,2024-11-18 17h53.28.823402 +0530,
67,75,119,35,0,5,t,1.4759884999948554,None,5,0,35,5,90.35053289995994,,90.33587029995397,90.35053289995994,91.33277549996274,91.33277549996274,91.36591929994756,,92.81613409996498,t,1.4759884999948554,None,706337,001,2024-11-18_17h53.17.638,Delay dfiscounting,2024.2.4,59.609604766952685,2024-11-18 17h53.28.823402 +0530,
40,55,62,36,1,5,t,0.34527270001126453,None,5,1,36,3,92.83191409998108,,92.8186247999547,92.83191409998108,93.83161579997977,93.83161579997977,93.83161579997977,,94.18208499997854,t,0.34527270001126453,None,706337,001,2024-11-18_17h53.17.638,Delay dfiscounting,2024.2.4,59.609604766952685,2024-11-18 17h53.28.823402 +0530,
27,50,21,37,2,5,t,0.2618823000229895,None,5,2,37,2,94.19814959994983,,94.18438209994929,94.19814959994983,95.19762359996093,95.19762359996093,95.19762359996093,,95.46505419997266,t,0.2618823000229895,None,706337,001,2024-11-18_17h53.17.638,Delay dfiscounting,2024.2.4,59.609604766952685,2024-11-18 17h53.28.823402 +0530,
15,35,13,38,3,5,l,0.15618310001445934,None,5,3,38,1,95.48081059998367,,95.46789289999288,95.48081059998367,96.48136899998644,96.48136899998644,96.48136899998644,,96.64733289997093,l,0.15618310001445934,None,706337,001,2024-11-18_17h53.17.638,Delay dfiscounting,2024.2.4,59.609604766952685,2024-11-18 17h53.28.823402 +0530,
49,60,89,39,4,5,t,0.2854679999873042,None,5,4,39,4,96.66363259998616,,96.64985419996083,96.66363259998616,97.64648609998403,97.64648609998403,97.66321429994423,,97.94720619998407,t,0.2854679999873042,None,706337,001,2024-11-18_17h53.17.638,Delay dfiscounting,2024.2.4,59.609604766952685,2024-11-18 17h53.28.823402 +0530,
11,30,7,40,5,5,t,0.23400480003328994,None,5,5,40,0,97.96324499999173,,97.94965179997962,97.96324499999173,98.96272509999108,98.96272509999108,98.96272509999108,,99.21342529996764,t,0.23400480003328994,None,706337,001,2024-11-18_17h53.17.638,Delay dfiscounting,2024.2.4,59.609604766952685,2024-11-18 17h53.28.823402 +0530,
78,80,162,41,6,5,t,1.5535603000316769,None,5,6,41,6,99.22932789998595,,99.21607069997117,99.22932789998595,100.22874839999713,100.22874839999713,100.22874839999713,,101.79626629996346,t,1.5535603000316769,None,706337,001,2024-11-18_17h53.17.638,Delay dfiscounting,2024.2.4,59.609604766952685,2024-11-18 17h53.28.823402 +0530,
78,80,162,42,0,6,t,0.9549125999910757,None,6,0,42,6,101.81149349996122,,101.79644089995418,101.81149349996122,102.8110725999577,102.8110725999577,102.8110725999577,,103.77795359998709,t,0.9549125999910757,None,706337,001,2024-11-18_17h53.17.638,Delay dfiscounting,2024.2.4,59.609604766952685,2024-11-18 17h53.28.823402 +0530,
11,30,7,43,1,6,l,1.1600824999623,None,6,1,43,0,103.79399749997538,,103.78029029996833,103.79399749997538,104.79357759997947,104.79357759997947,104.79357759997947,,105.96049749996746,l,1.1600824999623,None,706337,001,2024-11-18_17h53.17.638,Delay dfiscounting,2024.2.4,59.609604766952685,2024-11-18 17h53.28.823402 +0530,
27,50,21,44,2,6,t,1.566239100007806,None,6,2,44,2,105.97630619996926,,105.96270679996815,105.97630619996926,106.97635739995167,106.97635739995167,106.97635739995167,,108.55940749996807,t,1.566239100007806,None,706337,001,2024-11-18_17h53.17.638,Delay dfiscounting,2024.2.4,59.609604766952685,2024-11-18 17h53.28.823402 +0530,
67,75,119,45,3,6,t,1.263086699997075,None,6,3,45,5,108.57531739998376,,108.56150999997044,108.57531739998376,109.5747780999518,109.5747780999518,109.5747780999518,,110.841621199972,t,1.263086699997075,None,706337,001,2024-11-18_17h53.17.638,Delay dfiscounting,2024.2.4,59.609604766952685,2024-11-18 17h53.28.823402 +0530,
40,55,62,46,4,6,t,0.93347490002634,None,6,4,46,3,110.85752809996484,,110.84384919999866,110.85752809996484,111.84047549997922,111.84047549997922,111.85713749995921,,112.79061059997184,t,0.93347490002634,None,706337,001,2024-11-18_17h53.17.638,Delay dfiscounting,2024.2.4,59.609604766952685,2024-11-18 17h53.28.823402 +0530,
15,35,13,47,5,6,l,1.1689691999927163,None,6,5,47,1,112.80617369996617,,112.79280459997244,112.80617369996617,113.80567759997211,113.80567759997211,113.80567759997211,,114.98911139997654,l,1.1689691999927163,None,706337,001,2024-11-18_17h53.17.638,Delay dfiscounting,2024.2.4,59.609604766952685,2024-11-18 17h53.28.823402 +0530,
49,60,89,48,6,6,t,1.1369500000146218,None,6,6,48,4,115.00511869997717,,114.99158689996693,115.00511869997717,115.98802629997954,115.98802629997954,116.0047747999779,,117.13838169997325,t,1.1369500000146218,None,706337,001,2024-11-18_17h53.17.638,Delay dfiscounting,2024.2.4,59.609604766952685,2024-11-18 17h53.28.823402 +0530,
67,75,119,49,0,7,t,1.1753829000517726,None,7,0,49,5,117.15411589998985,,117.14052909996826,117.15411589998985,118.15382869995665,118.15382869995665,118.15382869995665,,119.33727159997215,t,1.1753829000517726,None,706337,001,2024-11-18_17h53.17.638,Delay dfiscounting,2024.2.4,59.609604766952685,2024-11-18 17h53.28.823402 +0530,
78,80,162,50,1,7,t,0.7599490000284277,None,7,1,50,6,119.35398489999352,,119.3398721999838,119.35398489999352,120.33616279996932,120.33616279996932,120.36937909998232,,121.10332319996087,t,0.7599490000284277,None,706337,001,2024-11-18_17h53.17.638,Delay dfiscounting,2024.2.4,59.609604766952685,2024-11-18 17h53.28.823402 +0530,
27,50,21,51,2,7,t,0.9973037000163458,None,7,2,51,2,121.1191193999839,,121.10550309997052,121.1191193999839,122.11893449997297,122.11893449997297,122.11893449997297,,123.11885499994969,t,0.9973037000163458,None,706337,001,2024-11-18_17h53.17.638,Delay dfiscounting,2024.2.4,59.609604766952685,2024-11-18 17h53.28.823402 +0530,
15,35,13,52,3,7,l,0.9815388999995776,None,7,3,52,1,123.1348959999741,,123.12104889994953,123.1348959999741,124.1182378999656,124.1182378999656,124.13513459998649,,125.10141289996682,l,0.9815388999995776,None,706337,001,2024-11-18_17h53.17.638,Delay dfiscounting,2024.2.4,59.609604766952685,2024-11-18 17h53.28.823402 +0530,
40,55,62,53,4,7,t,1.8407207000418566,None,7,4,53,3,125.11755199998152,,125.10367729997961,125.11755199998152,126.11702019994846,126.11702019994846,126.11702019994846,,127.96673039998859,t,1.8407207000418566,None,706337,001,2024-11-18_17h53.17.638,Delay dfiscounting,2024.2.4,59.609604766952685,2024-11-18 17h53.28.823402 +0530,
11,30,7,54,5,7,l,1.0438230999861844,None,7,5,54,0,127.98294599994551,,127.96887899999274,127.98294599994551,128.96583119995194,128.96583119995194,128.9825258999481,,130.01580569997896,l,1.0438230999861844,None,706337,001,2024-11-18_17h53.17.638,Delay dfiscounting,2024.2.4,59.609604766952685,2024-11-18 17h53.28.823402 +0530,
49,60,89,55,6,7,t,0.9192917000036687,None,7,6,55,4,130.0319588999846,,130.01842069998384,130.0319588999846,131.015022699954,131.015022699954,131.0315816999646,,131.94841419998556,t,0.9192917000036687,None,706337,001,2024-11-18_17h53.17.638,Delay dfiscounting,2024.2.4,59.609604766952685,2024-11-18 17h53.28.823402 +0530,
40,55,62,56,0,8,t,0.8853678000159562,None,8,0,56,3,131.9646954999771,,131.95069819997298,131.9646954999771,132.96415819996037,132.96415819996037,132.96415819996037,,133.86493949999567,t,0.8853678000159562,None,706337,001,2024-11-18_17h53.17.638,Delay dfiscounting,2024.2.4,59.609604766952685,2024-11-18 17h53.28.823402 +0530,
11,30,7,57,1,8,t,0.8409975999966264,None,8,1,57,0,133.88030419999268,,133.86735529999714,133.88030419999268,134.87980729999254,134.87980729999254,134.87980729999254,,135.73017099994468,t,0.8409975999966264,None,706337,001,2024-11-18_17h53.17.638,Delay dfiscounting,2024.2.4,59.609604766952685,2024-11-18 17h53.28.823402 +0530,
15,35,13,58,2,8,l,1.0809680999955162,None,8,2,58,1,135.74620799999684,,135.7324174999958,135.74620799999684,136.72915579995606,136.72915579995606,136.74594489997253,,137.81233549996978,l,1.0809680999955162,None,706337,001,2024-11-18_17h53.17.638,Delay dfiscounting,2024.2.4,59.609604766952685,2024-11-18 17h53.28.823402 +0530,
67,75,119,59,3,8,t,2.5327103000017814,None,8,3,59,5,137.82857729995158,,137.81463829998393,137.82857729995158,138.8115377999493,138.8115377999493,138.82821209996473,140.81105649995152,141.3607917999616,t,2.5327103000017814,None,706337,001,2024-11-18_17h53.17.638,Delay dfiscounting,2024.2.4,59.609604766952685,2024-11-18 17h53.28.823402 +0530,
49,60,89,60,4,8,l,1.0424721000017598,None,8,4,60,4,141.3770229999791,,141.36316079995595,141.3770229999791,142.36031669995282,142.36031669995282,142.37662499997532,,143.41015669994522,l,1.0424721000017598,None,706337,001,2024-11-18_17h53.17.638,Delay dfiscounting,2024.2.4,59.609604766952685,2024-11-18 17h53.28.823402 +0530,
27,50,21,61,5,8,t,0.9912406000075862,None,8,5,61,2,143.42621569999028,,143.41263599996455,143.42621569999028,144.42571409995435,144.42571409995435,144.42571409995435,,145.42599479999626,t,0.9912406000075862,None,706337,001,2024-11-18_17h53.17.638,Delay dfiscounting,2024.2.4,59.609604766952685,2024-11-18 17h53.28.823402 +0530,
78,80,162,62,6,8,t,1.6348517999867909,None,8,6,62,6,145.44205529999454,,145.42869489995064,145.44205529999454,146.441521599947,146.441521599947,146.441521599947,,148.09143019997282,t,1.6348517999867909,None,706337,001,2024-11-18_17h53.17.638,Delay dfiscounting,2024.2.4,59.609604766952685,2024-11-18 17h53.28.823402 +0530,
27,50,21,63,0,9,t,1.3432001000037417,None,9,0,63,2,148.10758169996552,,148.09425669995835,148.10758169996552,149.10725979995914,149.10725979995914,149.10725979995914,,150.45718469994608,t,1.3432001000037417,None,706337,001,2024-11-18_17h53.17.638,Delay dfiscounting,2024.2.4,59.609604766952685,2024-11-18 17h53.28.823402 +0530,
67,75,119,64,1,9,t,1.2250355999567546,None,9,1,64,5,150.47325229999842,,150.4593361999723,150.47325229999842,151.47289689996978,151.47289689996978,151.47289689996978,,152.70638069999404,t,1.2250355999567546,None,706337,001,2024-11-18_17h53.17.638,Delay dfiscounting,2024.2.4,59.609604766952685,2024-11-18 17h53.28.823402 +0530,
78,80,162,65,2,9,t,0.6899796999641694,None,9,2,65,6,152.72244679997675,,152.7092029999476,152.72244679997675,153.72176739998395,153.72176739998395,153.72176739998395,,154.42225469998084,t,0.6899796999641694,None,706337,001,2024-11-18_17h53.17.638,Delay dfiscounting,2024.2.4,59.609604766952685,2024-11-18 17h53.28.823402 +0530,
49,60,89,66,3,9,t,0.5687066999962553,None,9,3,66,4,154.43811129999813,,154.4247998999781,154.43811129999813,155.43769729998894,155.43769729998894,155.43769729998894,,156.02153129997896,t,0.5687066999962553,None,706337,001,2024-11-18_17h53.17.638,Delay dfiscounting,2024.2.4,59.609604766952685,2024-11-18 17h53.28.823402 +0530,
40,55,62,67,4,9,t,1.1408748000394553,None,9,4,67,3,156.03750879998552,,156.02404069999466,156.03750879998552,157.0369080999517,157.0369080999517,157.0369080999517,,158.18737999995938,t,1.1408748000394553,None,706337,001,2024-11-18_17h53.17.638,Delay dfiscounting,2024.2.4,59.609604766952685,2024-11-18 17h53.28.823402 +0530,
11,30,7,68,5,9,l,0.9147574999951757,None,9,5,68,0,158.2032002999913,,158.18958879995625,158.2032002999913,159.20278899994446,159.20278899994446,159.20278899994446,,160.11942319996888,l,0.9147574999951757,None,706337,001,2024-11-18_17h53.17.638,Delay dfiscounting,2024.2.4,59.609604766952685,2024-11-18 17h53.28.823402 +0530,
15,35,13,69,6,9,l,1.2376433999743313,None,9,6,69,1,160.13565439998638,,160.12184989999514,160.13565439998638,161.1186593999737,161.1186593999737,161.1352832999546,,162.36896009999327,l,1.2376433999743313,None,706337,001,2024-11-18_17h53.17.638,Delay dfiscounting,2024.2.4,59.609604766952685,2024-11-18 17h53.28.823402 +0530,
49,60,89,70,0,10,t,0.9301698000053875,None,10,0,70,4,162.38514019997092,,162.3714142999961,162.38514019997092,163.38488379999762,163.38488379999762,163.38488379999762,,164.31762669997988,t,0.9301698000053875,None,706337,001,2024-11-18_17h53.17.638,Delay dfiscounting,2024.2.4,59.609604766952685,2024-11-18 17h53.28.823402 +0530,
67,75,119,71,1,10,t,1.2648318000137806,None,10,1,71,5,164.3337907999521,,164.3199944999651,164.3337907999521,165.31687179999426,165.31687179999426,165.33335119998083,,166.5833944999613,t,1.2648318000137806,None,706337,001,2024-11-18_17h53.17.638,Delay dfiscounting,2024.2.4,59.609604766952685,2024-11-18 17h53.28.823402 +0530,
27,50,21,72,2,10,t,1.1321499000187032,None,10,2,72,2,166.59960279997904,,166.58561789995292,166.59960279997904,167.58235329994932,167.58235329994932,167.59917009994388,,168.716044199944,t,1.1321499000187032,None,706337,001,2024-11-18_17h53.17.638,Delay dfiscounting,2024.2.4,59.609604766952685,2024-11-18 17h53.28.823402 +0530,
11,30,7,73,3,10,l,0.7430446000071242,None,10,3,73,0,168.73194999998668,,168.71844839997357,168.73194999998668,169.73150899994653,169.73150899994653,169.73150899994653,,170.48219139996218,l,0.7430446000071242,None,706337,001,2024-11-18_17h53.17.638,Delay dfiscounting,2024.2.4,59.609604766952685,2024-11-18 17h53.28.823402 +0530,
40,55,62,74,4,10,t,0.5706375000299886,None,10,4,74,3,170.4977891999879,,170.48448789998656,170.4977891999879,171.49755849997746,171.49755849997746,171.49755849997746,,172.0811626999639,t,0.5706375000299886,None,706337,001,2024-11-18_17h53.17.638,Delay dfiscounting,2024.2.4,59.609604766952685,2024-11-18 17h53.28.823402 +0530,
78,80,162,75,5,10,t,0.6500264999922365,None,10,5,75,6,172.09747819998302,,172.08395429997472,172.09747819998302,173.09674539999105,173.09674539999105,173.09674539999105,,173.74807859997964,t,0.6500264999922365,None,706337,001,2024-11-18_17h53.17.638,Delay dfiscounting,2024.2.4,59.609604766952685,2024-11-18 17h53.28.823402 +0530,
15,35,13,76,6,10,l,0.7941806000308134,None,10,6,76,1,173.76313869998557,,173.75029169995105,173.76313869998557,174.76261409994913,174.76261409994913,174.76261409994913,,175.56282479997026,l,0.7941806000308134,None,706337,001,2024-11-18_17h53.17.638,Delay dfiscounting,2024.2.4,59.609604766952685,2024-11-18 17h53.28.823402 +0530,
67,75,119,77,0,11,t,0.8238332999753766,None,11,0,77,5,175.57897379994392,,175.56521619996056,175.57897379994392,176.5625884999754,176.5625884999754,176.57907799998065,,177.39554139995016,t,0.8238332999753766,None,706337,001,2024-11-18_17h53.17.638,Delay dfiscounting,2024.2.4,59.609604766952685,2024-11-18 17h53.28.823402 +0530,
49,60,89,78,1,11,t,0.7506913000252098,None,11,1,78,4,177.41162309999345,,177.3979668999673,177.41162309999345,178.41120439994847,178.41120439994847,178.41120439994847,,179.1781327999779,t,0.7506913000252098,None,706337,001,2024-11-18_17h53.17.638,Delay dfiscounting,2024.2.4,59.609604766952685,2024-11-18 17h53.28.823402 +0530,
78,80,162,79,2,11,t,0.8118536999681965,None,11,2,79,6,179.19417350000003,,179.18095409998205,179.19417350000003,180.19370379997417,180.19370379997417,180.19370379997417,,181.0105588999577,t,0.8118536999681965,None,706337,001,2024-11-18_17h53.17.638,Delay dfiscounting,2024.2.4,59.609604766952685,2024-11-18 17h53.28.823402 +0530,
11,30,7,80,3,11,l,0.663637200021185,None,11,3,80,0,181.02658909995807,,181.01279099995736,181.02658909995807,182.00962249998702,182.00962249998702,182.02627949998714,,182.6765845999471,l,0.663637200021185,None,706337,001,2024-11-18_17h53.17.638,Delay dfiscounting,2024.2.4,59.609604766952685,2024-11-18 17h53.28.823402 +0530,
27,50,21,81,4,11,t,0.6226009000092745,None,11,4,81,2,182.692727799993,,182.67909079999663,182.692727799993,183.69215439999243,183.69215439999243,183.69215439999243,,184.32599969999865,t,0.6226009000092745,None,706337,001,2024-11-18_17h53.17.638,Delay dfiscounting,2024.2.4,59.609604766952685,2024-11-18 17h53.28.823402 +0530,
40,55,62,82,5,11,t,0.41640889999689534,None,11,5,82,3,184.34191799996188,,184.3282848999952,184.34191799996188,185.34156719996827,185.34156719996827,185.34156719996827,,185.7592579999473,t,0.41640889999689534,None,706337,001,2024-11-18_17h53.17.638,Delay dfiscounting,2024.2.4,59.609604766952685,2024-11-18 17h53.28.823402 +0530,
15,35,13,83,6,11,t,0.32898409996414557,None,11,6,83,1,185.77466889994685,,185.76172759995097,185.77466889994685,186.77425329998368,186.77425329998368,186.77425329998368,,187.10810829995899,t,0.32898409996414557,None,706337,001,2024-11-18_17h53.17.638,Delay dfiscounting,2024.2.4,59.609604766952685,2024-11-18 17h53.28.823402 +0530,
27,50,21,84,0,12,t,2.4025836000218987,None,12,0,84,2,187.124025099969,,187.11044149997178,187.124025099969,188.12367289996473,188.12367289996473,188.12367289996473,190.1226799999713,190.53974329994526,t,2.4025836000218987,None,706337,001,2024-11-18_17h53.17.638,Delay dfiscounting,2024.2.4,59.609604766952685,2024-11-18 17h53.28.823402 +0530,
78,80,162,85,1,12,t,1.607859699986875,None,12,1,85,6,190.5559479999938,,190.54264909995254,190.5559479999938,191.55542929994408,191.55542929994408,191.55542929994408,,193.17224119999446,t,1.607859699986875,None,706337,001,2024-11-18_17h53.17.638,Delay dfiscounting,2024.2.4,59.609604766952685,2024-11-18 17h53.28.823402 +0530,
49,60,89,86,2,12,t,2.05023589998018,None,12,2,86,4,193.18816189997597,,193.17466939997394,193.18816189997597,194.18767889996525,194.18767889996525,194.18767889996525,196.18680649995804,196.25413489999482,t,2.05023589998018,None,706337,001,2024-11-18_17h53.17.638,Delay dfiscounting,2024.2.4,59.609604766952685,2024-11-18 17h53.28.823402 +0530,
40,55,62,87,3,12,t,0.9539914000197314,None,12,3,87,3,196.27014639996924,,196.2569224999752,196.27014639996924,197.2697586999857,197.2697586999857,197.2697586999857,,198.23647359997267,t,0.9539914000197314,None,706337,001,2024-11-18_17h53.17.638,Delay dfiscounting,2024.2.4,59.609604766952685,2024-11-18 17h53.28.823402 +0530,
11,30,7,88,4,12,l,0.7859425999922678,None,12,4,88,0,198.2526249999646,,198.23870439996244,198.2526249999646,199.23555619997205,199.23555619997205,199.25219259998994,,200.03585939999903,l,0.7859425999922678,None,706337,001,2024-11-18_17h53.17.638,Delay dfiscounting,2024.2.4,59.609604766952685,2024-11-18 17h53.28.823402 +0530,
67,75,119,89,5,12,t,0.7636475999606773,None,12,5,89,5,200.05189939995762,,200.0382544999593,200.05189939995762,201.0513710999512,201.0513710999512,201.0513710999512,,201.81805659999372,t,0.7636475999606773,None,706337,001,2024-11-18_17h53.17.638,Delay dfiscounting,2024.2.4,59.609604766952685,2024-11-18 17h53.28.823402 +0530,
15,35,13,90,6,12,l,0.818337699980475,None,12,6,90,1,201.83490939997137,,201.82035369996447,201.83490939997137,202.81730179995066,202.81730179995066,202.83425229997374,,203.65085989999352,l,0.818337699980475,None,706337,001,2024-11-18_17h53.17.638,Delay dfiscounting,2024.2.4,59.609604766952685,2024-11-18 17h53.28.823402 +0530,
11,30,7,91,0,13,l,1.423100300016813,None,13,0,91,0,203.66697849996854,,203.65327329997672,203.66697849996854,204.66677269997308,204.66677269997308,204.66677269997308,,206.10015659994679,l,1.423100300016813,None,706337,001,2024-11-18_17h53.17.638,Delay dfiscounting,2024.2.4,59.609604766952685,2024-11-18 17h53.28.823402 +0530,
40,55,62,92,1,13,t,1.0223744999966584,None,13,1,92,3,206.11590119998436,,206.1023445999599,206.11590119998436,207.1154899999965,207.1154899999965,207.1154899999965,,208.14911529998062,t,1.0223744999966584,None,706337,001,2024-11-18_17h53.17.638,Delay dfiscounting,2024.2.4,59.609604766952685,2024-11-18 17h53.28.823402 +0530,
27,50,21,93,2,13,t,0.8668943999800831,None,13,2,93,2,208.1650111999479,,208.15153749997262,208.1650111999479,209.16445389995351,209.16445389995351,209.16445389995351,,210.04818539996631,t,0.8668943999800831,None,706337,001,2024-11-18_17h53.17.638,Delay dfiscounting,2024.2.4,59.609604766952685,2024-11-18 17h53.28.823402 +0530,
67,75,119,94,3,13,t,0.9650394999771379,None,13,3,94,5,210.06416139996145,,210.0502813999774,210.06416139996145,211.06357919995207,211.06357919995207,211.06357919995207,,212.03076449997025,t,0.9650394999771379,None,706337,001,2024-11-18_17h53.17.638,Delay dfiscounting,2024.2.4,59.609604766952685,2024-11-18 17h53.28.823402 +0530,
15,35,13,95,4,13,l,0.751589999999851,None,13,4,95,1,212.04670209996402,,212.03307639999548,212.04670209996402,213.04617819999112,213.04617819999112,213.04617819999112,,213.81304079998517,l,0.751589999999851,None,706337,001,2024-11-18_17h53.17.638,Delay dfiscounting,2024.2.4,59.609604766952685,2024-11-18 17h53.28.823402 +0530,
49,60,89,96,5,13,t,0.7419237000285648,None,13,5,96,4,213.82916639995528,,213.815515699971,213.82916639995528,214.81282789999386,214.81282789999386,214.82877189997816,,215.56235129997367,t,0.7419237000285648,None,706337,001,2024-11-18_17h53.17.638,Delay dfiscounting,2024.2.4,59.609604766952685,2024-11-18 17h53.28.823402 +0530,
78,80,162,97,6,13,t,1.0174816999933682,None,13,6,97,6,215.5784879999701,,215.56522859999677,215.5784879999701,216.57836369995493,216.57836369995493,216.57836369995493,,217.6116675999947,t,1.0174816999933682,None,706337,001,2024-11-18_17h53.17.638,Delay dfiscounting,2024.2.4,59.609604766952685,2024-11-18 17h53.28.823402 +0530,
78,80,162,98,0,14,t,1.4536331000272185,None,14,0,98,6,217.62780469999416,,217.61191509995842,217.62780469999416,218.62705719994847,218.62705719994847,218.62705719994847,,220.09394939994672,t,1.4536331000272185,None,706337,001,2024-11-18_17h53.17.638,Delay dfiscounting,2024.2.4,59.609604766952685,2024-11-18 17h53.28.823402 +0530,
11,30,7,99,1,14,l,0.6529073999845423,None,14,1,99,0,220.10996829997748,,220.0962091999827,220.10996829997748,221.09316309995484,221.09316309995484,221.10950500000035,,221.7597301999922,l,0.6529073999845423,None,706337,001,2024-11-18_17h53.17.638,Delay dfiscounting,2024.2.4,59.609604766952685,2024-11-18 17h53.28.823402 +0530,
67,75,119,100,2,14,t,0.6447901999927126,None,14,2,100,5,221.77578219998395,,221.76191969995853,221.77578219998395,222.77528279996477,222.77528279996477,222.77528279996477,,223.4259395999834,t,0.6447901999927126,None,706337,001,2024-11-18_17h53.17.638,Delay dfiscounting,2024.2.4,59.609604766952685,2024-11-18 17h53.28.823402 +0530,
27,50,21,101,3,14,t,0.37853099999483675,None,14,3,101,2,223.44226669997443,,223.42823159997351,223.44226669997443,224.4413205999881,224.4413205999881,224.4413205999881,,224.82577269995818,t,0.37853099999483675,None,706337,001,2024-11-18_17h53.17.638,Delay dfiscounting,2024.2.4,59.609604766952685,2024-11-18 17h53.28.823402 +0530,
49,60,89,102,4,14,l,0.7299391999840736,None,14,4,102,4,224.84111659997143,,224.82834709994495,224.84111659997143,225.840690299985,225.840690299985,225.840690299985,,226.5744199999608,l,0.7299391999840736,None,706337,001,2024-11-18_17h53.17.638,Delay dfiscounting,2024.2.4,59.609604766952685,2024-11-18 17h53.28.823402 +0530,
15,35,13,103,5,14,l,0.7680521000293083,None,14,5,103,1,226.59053519996814,,226.57663959998172,226.59053519996814,227.58991029998288,227.58991029998288,227.58991029998288,,228.3737800999661,l,0.7680521000293083,None,706337,001,2024-11-18_17h53.17.638,Delay dfiscounting,2024.2.4,59.609604766952685,2024-11-18 17h53.28.823402 +0530,
40,55,62,104,6,14,t,0.948780499980785,None,14,6,104,3,228.38952239998616,,228.37633819994517,228.38952239998616,229.38906969997333,229.38906969997333,229.38906969997333,,230.33933529997012,t,0.948780499980785,None,706337,001,2024-11-18_17h53.17.638,Delay dfiscounting,2024.2.4,59.609604766952685,2024-11-18 17h53.28.823402 +0530,
67,75,119,105,0,15,t,0.5942662000306882,None,15,0,105,5,230.35529300000053,,230.34142569999676,230.35529300000053,231.35526749998098,231.35526749998098,231.35526749998098,,231.95544839999638,t,0.5942662000306882,None,706337,001,2024-11-18_17h53.17.638,Delay dfiscounting,2024.2.4,59.609604766952685,2024-11-18 17h53.28.823402 +0530,
78,80,162,106,1,15,t,0.617987500037998,None,15,1,106,6,231.9714647999499,,231.95798709994415,231.9714647999499,232.97091429994907,232.97091429994907,232.97091429994907,,233.6046340999892,t,0.617987500037998,None,706337,001,2024-11-18_17h53.17.638,Delay dfiscounting,2024.2.4,59.609604766952685,2024-11-18 17h53.28.823402 +0530,
11,30,7,107,2,15,l,0.9439095000270754,None,15,2,107,0,233.62066989997402,,233.60695940000005,233.62066989997402,234.62022639997303,234.62022639997303,234.62022639997303,,235.57052149996161,l,0.9439095000270754,None,706337,001,2024-11-18_17h53.17.638,Delay dfiscounting,2024.2.4,59.609604766952685,2024-11-18 17h53.28.823402 +0530,
27,50,21,108,3,15,t,3.123109599982854,None,15,3,108,2,235.58645139995497,,235.57272229995579,235.58645139995497,236.58605839998927,236.58605839998927,236.58605839998927,238.58554689999437,239.71867949998705,t,3.123109599982854,None,706337,001,2024-11-18_17h53.17.638,Delay dfiscounting,2024.2.4,59.609604766952685,2024-11-18 17h53.28.823402 +0530,
15,35,13,109,4,15,l,0.9388201999827288,None,15,4,109,1,239.734589199943,,239.7209240999655,239.734589199943,240.73416299995733,240.73416299995733,240.73416299995733,,241.68451949994778,l,0.9388201999827288,None,706337,001,2024-11-18_17h53.17.638,Delay dfiscounting,2024.2.4,59.609604766952685,2024-11-18 17h53.28.823402 +0530,
40,55,62,110,5,15,t,0.6305878999992274,None,15,5,110,3,241.70048269996187,,241.68672109994804,241.70048269996187,242.70000129996333,242.70000129996333,242.70000129996333,,243.33343959995545,t,0.6305878999992274,None,706337,001,2024-11-18_17h53.17.638,Delay dfiscounting,2024.2.4,59.609604766952685,2024-11-18 17h53.28.823402 +0530,
49,60,89,111,6,15,t,1.4164048000238836,None,15,6,111,4,243.34987489995547,,243.33575569995446,243.34987489995547,244.33268469996983,244.33268469996983,244.3493322999566,,245.76592389994767,t,1.4164048000238836,None,706337,001,2024-11-18_17h53.17.638,Delay dfiscounting,2024.2.4,59.609604766952685,2024-11-18 17h53.28.823402 +0530,
49,60,89,112,0,16,t,1.0452717999578454,None,16,0,112,4,245.78199369995855,,245.7661178999697,245.78199369995855,246.78157219995046,246.78157219995046,246.78157219995046,,247.8320857999497,t,1.0452717999578454,None,706337,001,2024-11-18_17h53.17.638,Delay dfiscounting,2024.2.4,59.609604766952685,2024-11-18 17h53.28.823402 +0530,
67,75,119,113,1,16,t,1.1946794000105,None,16,1,113,5,247.8479583999724,,247.8341284999624,247.8479583999724,248.84742659999756,248.84742659999756,248.84742659999756,,250.04743349994533,t,1.1946794000105,None,706337,001,2024-11-18_17h53.17.638,Delay dfiscounting,2024.2.4,59.609604766952685,2024-11-18 17h53.28.823402 +0530,
40,55,62,114,2,16,t,0.8240906000137329,None,16,2,114,3,250.0636621999438,,250.05002979998244,250.0636621999438,251.0466648999718,251.0466648999718,251.06306439999025,,251.88010629999917,t,0.8240906000137329,None,706337,001,2024-11-18_17h53.17.638,Delay dfiscounting,2024.2.4,59.609604766952685,2024-11-18 17h53.28.823402 +0530,
11,30,7,115,3,16,l,0.6630124000366777,None,16,3,115,0,251.89618589996826,,251.8823151999968,251.89618589996826,252.89548219996504,252.89548219996504,252.89548219996504,,253.56282529997407,l,0.6630124000366777,None,706337,001,2024-11-18_17h53.17.638,Delay dfiscounting,2024.2.4,59.609604766952685,2024-11-18 17h53.28.823402 +0530,
27,50,21,116,4,16,t,0.7010536000016145,None,16,4,116,2,253.57869929994922,,253.56526219996158,253.57869929994922,254.5782444999786,254.5782444999786,254.5782444999786,,255.29537469998468,t,0.7010536000016145,None,706337,001,2024-11-18_17h53.17.638,Delay dfiscounting,2024.2.4,59.609604766952685,2024-11-18 17h53.28.823402 +0530,
78,80,162,117,5,16,t,0.47982509998837486,None,16,5,117,6,255.31148209999083,,255.2979903999949,255.31148209999083,256.29419959994266,256.29419959994266,256.310795999947,,256.7779411999509,t,0.47982509998837486,None,706337,001,2024-11-18_17h53.17.638,Delay dfiscounting,2024.2.4,59.609604766952685,2024-11-18 17h53.28.823402 +0530,
15,35,13,118,6,16,l,0.9488862999714911,None,16,6,118,1,256.7939821999753,,256.78038309997646,256.7939821999753,257.7934403999825,257.7934403999825,257.7934403999825,,258.7441252999706,l,0.9488862999714911,None,706337,001,2024-11-18_17h53.17.638,Delay dfiscounting,2024.2.4,59.609604766952685,2024-11-18 17h53.28.823402 +0530,
27,50,21,119,0,17,t,0.7454258000361733,None,17,0,119,2,258.7598957999726,,258.7462618999998,258.7598957999726,259.7593050999567,259.7593050999567,259.7593050999567,,260.50958329997957,t,0.7454258000361733,None,706337,001,2024-11-18_17h53.17.638,Delay dfiscounting,2024.2.4,59.609604766952685,2024-11-18 17h53.28.823402 +0530,
49,60,89,120,1,17,t,1.4633329000207596,None,17,1,120,4,260.5256836999906,,260.51225959998555,260.5256836999906,261.5252156999777,261.5252156999777,261.5252156999777,,262.9921866999939,t,1.4633329000207596,None,706337,001,2024-11-18_17h53.17.638,Delay dfiscounting,2024.2.4,59.609604766952685,2024-11-18 17h53.28.823402 +0530,
15,35,13,121,2,17,l,1.0653417999856174,None,17,2,121,1,263.0085322999512,,262.99437339999713,263.0085322999512,264.00801059999503,264.00801059999503,264.0241559999995,,265.0745656999643,l,1.0653417999856174,None,706337,001,2024-11-18_17h53.17.638,Delay dfiscounting,2024.2.4,59.609604766952685,2024-11-18 17h53.28.823402 +0530,
67,75,119,122,3,17,t,1.5674643000238575,None,17,3,122,5,265.0904019999434,,265.07711869996274,265.0904019999434,266.0897497999831,266.0897497999831,266.0897497999831,,267.67319089995,t,1.5674643000238575,None,706337,001,2024-11-18_17h53.17.638,Delay dfiscounting,2024.2.4,59.609604766952685,2024-11-18 17h53.28.823402 +0530,
78,80,162,123,4,17,t,1.2825557999894954,None,17,4,123,6,267.6892064999556,,267.6758295999607,267.6892064999556,268.68880509998417,268.68880509998417,268.68880509998417,,269.9727195999585,t,1.2825557999894954,None,706337,001,2024-11-18_17h53.17.638,Delay dfiscounting,2024.2.4,59.609604766952685,2024-11-18 17h53.28.823402 +0530,
11,30,7,124,5,17,l,0.741494000016246,None,17,5,124,0,269.98825159994885,,269.9751991999801,269.98825159994885,270.9879602000001,270.9879602000001,270.9879602000001,,271.73781389999203,l,0.741494000016246,None,706337,001,2024-11-18_17h53.17.638,Delay dfiscounting,2024.2.4,59.609604766952685,2024-11-18 17h53.28.823402 +0530,
40,55,62,125,6,17,t,0.6801852000062354,None,17,6,125,3,271.7540158999618,,271.7401266999659,271.7540158999618,272.7371259999927,272.7371259999927,272.7536754999892,,273.4208813000005,t,0.6801852000062354,None,706337,001,2024-11-18_17h53.17.638,Delay dfiscounting,2024.2.4,59.609604766952685,2024-11-18 17h53.28.823402 +0530,
11,30,7,126,0,18,l,0.6002418000134639,None,18,0,126,0,273.4367131999461,,273.42337029997725,273.4367131999461,274.43700459995307,274.43700459995307,274.43700459995307,,275.0536118999589,l,0.6002418000134639,None,706337,001,2024-11-18_17h53.17.638,Delay dfiscounting,2024.2.4,59.609604766952685,2024-11-18 17h53.28.823402 +0530,
49,60,89,127,1,18,t,0.6724013999919407,None,18,1,127,4,275.06941069994355,,275.05608269997174,275.06941069994355,276.06897629995365,276.06897629995365,276.06897629995365,,276.752721799945,t,0.6724013999919407,None,706337,001,2024-11-18_17h53.17.638,Delay dfiscounting,2024.2.4,59.609604766952685,2024-11-18 17h53.28.823402 +0530,
27,50,21,128,2,18,t,0.9804873999673873,None,18,2,128,2,276.76872729999013,,276.75531279999996,276.76872729999013,277.7681726999581,277.7681726999581,277.7681726999581,,278.751741199987,t,0.9804873999673873,None,706337,001,2024-11-18_17h53.17.638,Delay dfiscounting,2024.2.4,59.609604766952685,2024-11-18 17h53.28.823402 +0530,
78,80,162,129,3,18,t,0.7726597000146285,None,18,3,129,6,278.7677964999457,,278.7543969999533,278.7677964999457,279.7672310999478,279.7672310999478,279.7672310999478,,280.55099199997494,t,0.7726597000146285,None,706337,001,2024-11-18_17h53.17.638,Delay dfiscounting,2024.2.4,59.609604766952685,2024-11-18 17h53.28.823402 +0530,
40,55,62,130,4,18,t,0.5201016000355594,None,18,4,130,3,280.5670261999476,,280.5534476999892,280.5670261999476,281.56665039999643,281.56665039999643,281.56665039999643,,282.10054969997145,t,0.5201016000355594,None,706337,001,2024-11-18_17h53.17.638,Delay dfiscounting,2024.2.4,59.609604766952685,2024-11-18 17h53.28.823402 +0530,
15,35,13,131,5,18,l,0.43375120003474876,None,18,5,131,1,282.1162847999949,,282.10271139995893,282.1162847999949,283.11591239995323,283.11591239995323,283.11591239995323,,283.5665666999994,l,0.43375120003474876,None,706337,001,2024-11-18_17h53.17.638,Delay dfiscounting,2024.2.4,59.609604766952685,2024-11-18 17h53.28.823402 +0530,
67,75,119,132,6,18,t,0.7656133999698795,None,18,6,132,5,283.58229469996877,,283.5688977999962,283.58229469996877,284.56512519996613,284.56512519996613,284.58202879998134,,285.3323354999884,t,0.7656133999698795,None,706337,001,2024-11-18_17h53.17.638,Delay dfiscounting,2024.2.4,59.609604766952685,2024-11-18 17h53.28.823402 +0530,
67,75,119,133,0,19,t,0.4385270999628119,None,19,0,133,5,285.3483102999744,,285.33247279998614,285.3483102999744,286.34785969997756,286.34785969997756,286.34785969997756,,286.7981626999681,t,0.4385270999628119,None,706337,001,2024-11-18_17h53.17.638,Delay dfiscounting,2024.2.4,59.609604766952685,2024-11-18 17h53.28.823402 +0530,
15,35,13,134,1,19,l,0.6447860000189394,None,19,1,134,1,286.8144779999857,,286.8004098999663,286.8144779999857,287.79719469998963,287.79719469998963,287.81380099995295,,288.4478637999855,l,0.6447860000189394,None,706337,001,2024-11-18_17h53.17.638,Delay dfiscounting,2024.2.4,59.609604766952685,2024-11-18 17h53.28.823402 +0530,
49,60,89,135,2,19,t,0.6695621000253595,None,19,2,135,4,288.4638075999683,,288.45023079996463,288.4638075999683,289.46322709997185,289.46322709997185,289.46322709997185,,290.1475590999471,t,0.6695621000253595,None,706337,001,2024-11-18_17h53.17.638,Delay dfiscounting,2024.2.4,59.609604766952685,2024-11-18 17h53.28.823402 +0530,
11,30,7,136,3,19,l,0.6423141999985091,None,19,3,136,0,290.1629599999869,,290.14977399999043,290.1629599999869,291.16244969994295,291.16244969994295,291.16244969994295,,291.8128238999634,l,0.6423141999985091,None,706337,001,2024-11-18_17h53.17.638,Delay dfiscounting,2024.2.4,59.609604766952685,2024-11-18 17h53.28.823402 +0530,
40,55,62,137,4,19,t,0.6224275000276975,None,19,4,137,3,291.82885549997445,,291.8151055999915,291.82885549997445,292.8283875999623,292.8283875999623,292.8283875999623,,293.46253759996034,t,0.6224275000276975,None,706337,001,2024-11-18_17h53.17.638,Delay dfiscounting,2024.2.4,59.609604766952685,2024-11-18 17h53.28.823402 +0530,
78,80,162,138,5,19,t,0.5387462999788113,None,19,5,138,6,293.4782118999865,,293.4651433999534,293.4782118999865,294.47872479999205,294.47872479999205,294.47872479999205,,295.0277969999588,t,0.5387462999788113,None,706337,001,2024-11-18_17h53.17.638,Delay dfiscounting,2024.2.4,59.609604766952685,2024-11-18 17h53.28.823402 +0530,
27,50,21,139,6,19,t,0.6989509999984875,None,19,6,139,2,295.0441966999788,,295.030006499961,295.0441966999788,296.02700799994636,296.02700799994636,296.0437440999667,,296.7277018999448,t,0.6989509999984875,None,706337,001,2024-11-18_17h53.17.638,Delay dfiscounting,2024.2.4,59.609604766952685,2024-11-18 17h53.28.823402 +0530,
40,55,62,140,0,20,t,0.36629590002121404,None,20,0,140,3,296.7435022999998,,296.7299233999802,296.7435022999998,297.74284969997825,297.74284969997825,297.74284969997825,,298.11058909998974,t,0.36629590002121404,None,706337,001,2024-11-18_17h53.17.638,Delay dfiscounting,2024.2.4,59.609604766952685,2024-11-18 17h53.28.823402 +0530,
49,60,89,141,1,20,t,0.2564779000240378,None,20,1,141,4,298.12616329995217,,298.11292979994323,298.12616329995217,299.1263023999636,299.1263023999636,299.1263023999636,,299.3929355999571,t,0.2564779000240378,None,706337,001,2024-11-18_17h53.17.638,Delay dfiscounting,2024.2.4,59.609604766952685,2024-11-18 17h53.28.823402 +0530,
67,75,119,142,2,20,t,0.494108899962157,None,20,2,142,5,299.4088004999794,,299.39502939995145,299.4088004999794,300.40840629994636,300.40840629994636,300.40840629994636,,300.90896109997993,t,0.494108899962157,None,706337,001,2024-11-18_17h53.17.638,Delay dfiscounting,2024.2.4,59.609604766952685,2024-11-18 17h53.28.823402 +0530,
11,30,7,143,3,20,l,0.4607817999785766,None,20,3,143,0,300.92513169994345,,300.911235699954,300.92513169994345,301.90788549999706,301.90788549999706,301.92454459995497,,302.3748848999967,l,0.4607817999785766,None,706337,001,2024-11-18_17h53.17.638,Delay dfiscounting,2024.2.4,59.609604766952685,2024-11-18 17h53.28.823402 +0530,
78,80,162,144,4,20,t,0.7063431999995373,None,20,4,144,6,302.3910303999437,,302.3774855999509,302.3910303999437,303.390543699963,303.390543699963,303.390543699963,,304.1075975999702,t,0.7063431999995373,None,706337,001,2024-11-18_17h53.17.638,Delay dfiscounting,2024.2.4,59.609604766952685,2024-11-18 17h53.28.823402 +0530,
27,50,21,145,5,20,t,0.2473642000113614,None,20,5,145,2,304.1235278999666,,304.1098466999829,304.1235278999666,305.1230524999555,305.1230524999555,305.1230524999555,,305.37335489998804,t,0.2473642000113614,None,706337,001,2024-11-18_17h53.17.638,Delay dfiscounting,2024.2.4,59.609604766952685,2024-11-18 17h53.28.823402 +0530,
15,35,13,146,6,20,l,0.4675416999962181,None,20,6,146,1,305.38969519996317,,305.3755002999678,305.38969519996317,306.37275149999186,306.37275149999186,306.3893207999645,,306.8566585999797,l,0.4675416999962181,None,706337,001,2024-11-18_17h53.17.638,Delay dfiscounting,2024.2.4,59.609604766952685,2024-11-18 17h53.28.823402 +0530,
67,75,119,147,0,21,t,1.84790689998772,None,21,0,147,5,306.87242739996873,,306.8588168999995,306.87242739996873,307.87178259994835,307.87178259994835,307.87178259994835,,309.7215118999593,t,1.84790689998772,None,706337,001,2024-11-18_17h53.17.638,Delay dfiscounting,2024.2.4,59.609604766952685,2024-11-18 17h53.28.823402 +0530,
11,30,7,148,1,21,l,0.9730882999720052,None,21,1,148,0,309.73768869997,,309.72369179996895,309.73768869997,310.72149569995236,310.72149569995236,310.73732359998394,,311.7042718999437,l,0.9730882999720052,None,706337,001,2024-11-18_17h53.17.638,Delay dfiscounting,2024.2.4,59.609604766952685,2024-11-18 17h53.28.823402 +0530,
27,50,21,149,2,21,t,0.7551212999969721,None,21,2,149,2,311.7204047999694,,311.70648619998246,311.7204047999694,312.719707799959,312.719707799959,312.719707799959,,313.4869438999449,t,0.7551212999969721,None,706337,001,2024-11-18_17h53.17.638,Delay dfiscounting,2024.2.4,59.609604766952685,2024-11-18 17h53.28.823402 +0530,
49,60,89,150,3,21,t,0.868224999983795,None,21,3,150,4,313.5027693999582,,313.4893011999666,313.5027693999582,314.5023455999908,314.5023455999908,314.5023455999908,,315.3860160999466,t,0.868224999983795,None,706337,001,2024-11-18_17h53.17.638,Delay dfiscounting,2024.2.4,59.609604766952685,2024-11-18 17h53.28.823402 +0530,
15,35,13,151,4,21,l,0.8349001999595203,None,21,4,151,1,315.402082399989,,315.38830049999524,315.402082399989,316.4015369999688,316.4015369999688,316.4015369999688,,317.25193309999304,l,0.8349001999595203,None,706337,001,2024-11-18_17h53.17.638,Delay dfiscounting,2024.2.4,59.609604766952685,2024-11-18 17h53.28.823402 +0530,
78,80,162,152,5,21,t,3.4509385999990627,None,21,5,152,6,317.2677488999907,,317.2545444999705,317.2677488999907,318.25065289996564,318.25065289996564,318.26727809995646,320.2502666999935,321.7168348999694,t,3.4509385999990627,None,706337,001,2024-11-18_17h53.17.638,Delay dfiscounting,2024.2.4,59.609604766952685,2024-11-18 17h53.28.823402 +0530,
40,55,62,153,6,21,t,0.6480984999798238,None,21,6,153,3,321.73272159998305,,321.7192176999524,321.73272159998305,322.732135499944,322.732135499944,322.732135499944,,323.3824967999826,t,0.6480984999798238,None,706337,001,2024-11-18_17h53.17.638,Delay dfiscounting,2024.2.4,59.609604766952685,2024-11-18 17h53.28.823402 +0530,
40,55,62,154,0,22,t,0.584206199971959,None,22,0,154,3,323.3984969999874,,323.3826496999827,323.3984969999874,324.39817189995665,324.39817189995665,324.39817189995665,,324.9985820999718,t,0.584206199971959,None,706337,001,2024-11-18_17h53.17.638,Delay dfiscounting,2024.2.4,59.609604766952685,2024-11-18 17h53.28.823402 +0530,
78,80,162,155,1,22,t,1.1675534000387415,None,22,1,155,6,325.01456489996053,,325.0013831999968,325.01456489996053,326.0140338999918,326.0140338999918,326.0140338999918,,327.19788639998296,t,1.1675534000387415,None,706337,001,2024-11-18_17h53.17.638,Delay dfiscounting,2024.2.4,59.609604766952685,2024-11-18 17h53.28.823402 +0530,
27,50,21,156,2,22,t,0.860157800023444,None,22,2,156,2,327.21370599995134,,327.2000471999636,327.21370599995134,328.21305379999103,328.21305379999103,328.21305379999103,,329.08010929997545,t,0.860157800023444,None,706337,001,2024-11-18_17h53.17.638,Delay dfiscounting,2024.2.4,59.609604766952685,2024-11-18 17h53.28.823402 +0530,
67,75,119,157,3,22,t,1.2461745999753475,None,22,3,157,5,329.09607529995264,,329.08257549995324,329.09607529995264,330.09558659995673,330.09558659995673,330.09558659995673,,331.3461129999487,t,1.2461745999753475,None,706337,001,2024-11-18_17h53.17.638,Delay dfiscounting,2024.2.4,59.609604766952685,2024-11-18 17h53.28.823402 +0530,
11,30,7,158,4,22,l,0.5341656000236981,None,22,4,158,0,331.3618463999592,,331.34832569997525,331.3618463999592,332.3614481999539,332.3614481999539,332.3614481999539,,332.9118904999923,l,0.5341656000236981,None,706337,001,2024-11-18_17h53.17.638,Delay dfiscounting,2024.2.4,59.609604766952685,2024-11-18 17h53.28.823402 +0530,
49,60,89,159,5,22,t,0.5363632999942638,None,22,5,159,4,332.927737799997,,332.9145274999901,332.927737799997,333.92782349995105,333.92782349995105,333.92782349995105,,334.4782040999853,t,0.5363632999942638,None,706337,001,2024-11-18_17h53.17.638,Delay dfiscounting,2024.2.4,59.609604766952685,2024-11-18 17h53.28.823402 +0530,
15,35,13,160,6,22,l,0.7125175999826752,None,22,6,160,1,334.49393429997144,,334.4804088999517,334.49393429997144,335.49332519999007,335.49332519999007,335.49332519999007,,336.2103617999819,l,0.7125175999826752,None,706337,001,2024-11-18_17h53.17.638,Delay dfiscounting,2024.2.4,59.609604766952685,2024-11-18 17h53.28.823402 +0530,
15,35,13,161,0,23,l,0.7679370999685489,None,23,0,161,1,336.2264066999778,,336.2105076999869,336.2264066999778,337.22588969999924,337.22588969999924,337.22588969999924,,338.0096778999432,l,0.7679370999685489,None,706337,001,2024-11-18_17h53.17.638,Delay dfiscounting,2024.2.4,59.609604766952685,2024-11-18 17h53.28.823402 +0530,
78,80,162,162,1,23,t,0.6438646999886259,None,23,1,162,6,338.02557699999306,,338.0121764999931,338.02557699999306,339.0084682999877,339.0084682999877,339.02553299994906,,339.6590152999852,t,0.6438646999886259,None,706337,001,2024-11-18_17h53.17.638,Delay dfiscounting,2024.2.4,59.609604766952685,2024-11-18 17h53.28.823402 +0530,
11,30,7,163,2,23,l,0.8390386999817565,None,23,2,163,0,339.6748187999474,,339.66118459997233,339.6748187999474,340.67433169996366,340.67433169996366,340.67433169996366,,341.52455399994506,l,0.8390386999817565,None,706337,001,2024-11-18_17h53.17.638,Delay dfiscounting,2024.2.4,59.609604766952685,2024-11-18 17h53.28.823402 +0530,
40,55,62,164,3,23,t,3.215270699991379,None,23,3,164,3,341.5406453999458,,341.5268298999872,341.5406453999458,342.5243077999912,342.5243077999912,342.54028429999016,344.5393134999904,345.75615419994574,t,3.215270699991379,None,706337,001,2024-11-18_17h53.17.638,Delay dfiscounting,2024.2.4,59.609604766952685,2024-11-18 17h53.28.823402 +0530,
49,60,89,165,4,23,t,0.5798106999718584,None,23,4,165,4,345.7726856999798,,345.75860229996033,345.7726856999798,346.7718716999516,346.7718716999516,346.7718716999516,,347.35562699998263,t,0.5798106999718584,None,706337,001,2024-11-18_17h53.17.638,Delay dfiscounting,2024.2.4,59.609604766952685,2024-11-18 17h53.28.823402 +0530,
27,50,21,166,5,23,l,0.6166559999692254,None,23,5,166,2,347.3716054999968,,347.3577786999522,347.3716054999968,348.37157769995974,348.37157769995974,348.37157769995974,,349.00498759996844,l,0.6166559999692254,None,706337,001,2024-11-18_17h53.17.638,Delay dfiscounting,2024.2.4,59.609604766952685,2024-11-18 17h53.28.823402 +0530,
67,75,119,167,6,23,t,0.6594864000217058,None,23,6,167,5,349.0207948999596,,349.0070714999456,349.0207948999596,350.02076059998944,350.02076059998944,350.02076059998944,,350.68737829994643,t,0.6594864000217058,None,706337,001,2024-11-18_17h53.17.638,Delay dfiscounting,2024.2.4,59.609604766952685,2024-11-18 17h53.28.823402 +0530,
67,75,119,168,0,24,t,0.43559189996449277,None,24,0,168,5,350.70379419997334,,350.68754069996066,350.70379419997334,351.7029291999643,351.7029291999643,351.7029291999643,,352.15424529998563,t,0.43559189996449277,None,706337,001,2024-11-18_17h53.17.638,Delay dfiscounting,2024.2.4,59.609604766952685,2024-11-18 17h53.28.823402 +0530,
40,55,62,169,1,24,t,0.6361974999890663,None,24,1,169,3,352.16959059995133,,352.1564377999748,352.16959059995133,353.16937189997407,353.16937189997407,353.16937189997407,,353.81939339998644,t,0.6361974999890663,None,706337,001,2024-11-18_17h53.17.638,Delay dfiscounting,2024.2.4,59.609604766952685,2024-11-18 17h53.28.823402 +0530,
15,35,13,170,2,24,l,0.5455697999568656,None,24,2,170,1,353.835497699969,,353.82193149998784,353.835497699969,354.8188483999693,354.8188483999693,354.8350311999675,,355.3688259999617,l,0.5455697999568656,None,706337,001,2024-11-18_17h53.17.638,Delay dfiscounting,2024.2.4,59.609604766952685,2024-11-18 17h53.28.823402 +0530,
27,50,21,171,3,24,l,2.1000631999922916,None,24,3,171,2,355.38469849998364,,355.37098859995604,355.38469849998364,356.3842144999653,356.3842144999653,356.3842144999653,358.3834755999851,358.500837199972,l,2.1000631999922916,None,706337,001,2024-11-18_17h53.17.638,Delay dfiscounting,2024.2.4,59.609604766952685,2024-11-18 17h53.28.823402 +0530,
49,60,89,172,4,24,t,0.9468915999750607,None,24,4,172,4,358.51687269995455,,358.5034987999825,358.51687269995455,359.51619409996783,359.51619409996783,359.51619409996783,,360.4665526999743,t,0.9468915999750607,None,706337,001,2024-11-18_17h53.17.638,Delay dfiscounting,2024.2.4,59.609604766952685,2024-11-18 17h53.28.823402 +0530,
11,30,7,173,5,24,l,0.6396580999717116,None,24,5,173,0,360.482510599948,,360.4687874999945,360.482510599948,361.4820032999851,361.4820032999851,361.4820032999851,,362.13256529998034,l,0.6396580999717116,None,706337,001,2024-11-18_17h53.17.638,Delay dfiscounting,2024.2.4,59.609604766952685,2024-11-18 17h53.28.823402 +0530,
78,80,162,174,6,24,t,0.4564614999690093,None,24,6,174,6,362.14860219997354,,362.1353391999728,362.14860219997354,363.1315552999731,363.1315552999731,363.14804409997305,,363.5983827999444,t,0.4564614999690093,None,706337,001,2024-11-18_17h53.17.638,Delay dfiscounting,2024.2.4,59.609604766952685,2024-11-18 17h53.28.823402 +0530,
40,55,62,175,0,25,l,0.40753919997951016,None,25,0,175,3,363.6145424999995,,363.6005816999823,363.6145424999995,364.61414009996224,364.61414009996224,364.61414009996224,,365.0316696999944,l,0.40753919997951016,None,706337,001,2024-11-18_17h53.17.638,Delay dfiscounting,2024.2.4,59.609604766952685,2024-11-18 17h53.28.823402 +0530,
78,80,162,176,1,25,t,0.37299359997268766,None,25,1,176,6,365.0473155999789,,365.03455119999126,365.0473155999789,366.0468588999938,366.0468588999938,366.0468588999938,,366.4307252999861,t,0.37299359997268766,None,706337,001,2024-11-18_17h53.17.638,Delay dfiscounting,2024.2.4,59.609604766952685,2024-11-18 17h53.28.823402 +0530,
49,60,89,177,2,25,t,0.4371331000002101,None,25,2,177,4,366.44655919994693,,366.4332192999427,366.44655919994693,367.4462079999503,367.4462079999503,367.4462079999503,,367.89685889997054,t,0.4371331000002101,None,706337,001,2024-11-18_17h53.17.638,Delay dfiscounting,2024.2.4,59.609604766952685,2024-11-18 17h53.28.823402 +0530,
15,35,13,178,3,25,t,0.30011509999167174,None,25,3,178,1,367.9126389999874,,367.8993582999683,367.9126389999874,368.912131399964,368.912131399964,368.912131399964,,369.21333469997626,t,0.30011509999167174,None,706337,001,2024-11-18_17h53.17.638,Delay dfiscounting,2024.2.4,59.609604766952685,2024-11-18 17h53.28.823402 +0530,
11,30,7,179,4,25,l,0.5313483999925666,None,25,4,179,0,369.228725999943,,369.2155068999855,369.228725999943,370.2282130999956,370.2282130999956,370.2282130999956,,370.7617443999625,l,0.5313483999925666,None,706337,001,2024-11-18_17h53.17.638,Delay dfiscounting,2024.2.4,59.609604766952685,2024-11-18 17h53.28.823402 +0530,
27,50,21,180,5,25,l,1.0923385999631137,None,25,5,180,2,370.7781861999538,,370.76408699998865,370.7781861999538,371.7610861999565,371.7610861999565,371.77764579997165,,372.8612124999636,l,1.0923385999631137,None,706337,001,2024-11-18_17h53.17.638,Delay dfiscounting,2024.2.4,59.609604766952685,2024-11-18 17h53.28.823402 +0530,
67,75,119,181,6,25,t,0.5053143999539316,None,25,6,181,5,372.87715529999696,,372.86334659997374,372.87715529999696,373.8600931999972,373.8600931999972,373.87672039994504,,374.3772695999942,t,0.5053143999539316,None,706337,001,2024-11-18_17h53.17.638,Delay dfiscounting,2024.2.4,59.609604766952685,2024-11-18 17h53.28.823402 +0530,
67,75,119,182,0,26,t,0.6817055999999866,None,26,0,182,5,374.3932210999774,,374.3774462000001,374.3932210999774,375.3928119999473,375.3928119999473,375.3928119999473,,376.07619059999706,t,0.6817055999999866,None,706337,001,2024-11-18_17h53.17.638,Delay dfiscounting,2024.2.4,59.609604766952685,2024-11-18 17h53.28.823402 +0530,
40,55,62,183,1,26,t,2.1190073000034317,None,26,1,183,3,376.092410799989,,376.0784110999666,376.092410799989,377.0753615999711,377.0753615999711,377.09205049998127,379.0745302999858,379.20891569997184,t,2.1190073000034317,None,706337,001,2024-11-18_17h53.17.638,Delay dfiscounting,2024.2.4,59.609604766952685,2024-11-18 17h53.28.823402 +0530,
49,60,89,184,2,26,t,0.5570492999977432,None,26,2,184,4,379.22442729998147,,379.21135859994683,379.22442729998147,380.22406439995393,380.22406439995393,380.22406439995393,,380.7909850999713,t,0.5570492999977432,None,706337,001,2024-11-18_17h53.17.638,Delay dfiscounting,2024.2.4,59.609604766952685,2024-11-18 17h53.28.823402 +0530,
15,35,13,185,3,26,l,0.5933422999805771,None,26,3,185,1,380.8071937999921,,380.7932458999567,380.8071937999921,381.7900751999696,381.7900751999696,381.80660659994464,,382.39064939995296,l,0.5933422999805771,None,706337,001,2024-11-18_17h53.17.638,Delay dfiscounting,2024.2.4,59.609604766952685,2024-11-18 17h53.28.823402 +0530,
27,50,21,186,4,26,l,3.033823400037363,None,26,4,186,2,382.40677429997595,,382.392982499965,382.40677429997595,383.4065901999711,383.4065901999711,383.4065901999711,385.42187869996997,386.4557401999482,l,3.033823400037363,None,706337,001,2024-11-18_17h53.17.638,Delay dfiscounting,2024.2.4,59.609604766952685,2024-11-18 17h53.28.823402 +0530,
78,80,162,187,5,26,t,0.5769540999899618,None,26,5,187,6,386.471319699951,,386.45842669997364,386.471319699951,387.4708556999685,387.4708556999685,387.4708556999685,,388.0546740999562,t,0.5769540999899618,None,706337,001,2024-11-18_17h53.17.638,Delay dfiscounting,2024.2.4,59.609604766952685,2024-11-18 17h53.28.823402 +0530,
11,30,7,188,6,26,l,0.5854234999860637,None,26,6,188,0,388.07055969996145,,388.0568286999478,388.07055969996145,389.05357609997736,389.05357609997736,389.0701843999559,,389.6546368999989,l,0.5854234999860637,None,706337,001,2024-11-18_17h53.17.638,Delay dfiscounting,2024.2.4,59.609604766952685,2024-11-18 17h53.28.823402 +0530,
67,75,119,189,0,27,t,1.5284305000095628,None,27,0,189,5,389.6700871999492,,389.65676239994355,389.6700871999492,390.6693515999941,390.6693515999941,390.6693515999941,,392.20279829995707,t,1.5284305000095628,None,706337,001,2024-11-18_17h53.17.638,Delay dfiscounting,2024.2.4,59.609604766952685,2024-11-18 17h53.28.823402 +0530,
49,60,89,190,1,27,t,0.6333159999921918,None,27,1,190,4,392.2188423999469,,392.2052286999533,392.2188423999469,393.21831179998117,393.21831179998117,393.21831179998117,,393.8529360999819,t,0.6333159999921918,None,706337,001,2024-11-18_17h53.17.638,Delay dfiscounting,2024.2.4,59.609604766952685,2024-11-18 17h53.28.823402 +0530,
78,80,162,191,2,27,t,0.547552399977576,None,27,2,191,6,393.8682145999628,,393.8554316999507,393.8682145999628,394.86766179994447,394.86766179994447,394.86766179994447,,395.4178390999441,t,0.547552399977576,None,706337,001,2024-11-18_17h53.17.638,Delay dfiscounting,2024.2.4,59.609604766952685,2024-11-18 17h53.28.823402 +0530,
27,50,21,192,3,27,l,0.7074346999870613,None,27,3,192,2,395.43400959996507,,395.4201854999992,395.43400959996507,396.4175789000001,396.4175789000001,396.4335766999866,,397.13399029994616,l,0.7074346999870613,None,706337,001,2024-11-18_17h53.17.638,Delay dfiscounting,2024.2.4,59.609604766952685,2024-11-18 17h53.28.823402 +0530,
11,30,7,193,4,27,l,0.42697580001549795,None,27,4,193,0,397.15004849998513,,397.1361743999878,397.15004849998513,398.1496126999846,398.1496126999846,398.1496126999846,,398.58348699996714,l,0.42697580001549795,None,706337,001,2024-11-18_17h53.17.638,Delay dfiscounting,2024.2.4,59.609604766952685,2024-11-18 17h53.28.823402 +0530,
40,55,62,194,5,27,t,0.4194755000062287,None,27,5,194,3,398.59935289999703,,398.58570939995116,398.59935289999703,399.5990222999826,399.5990222999826,399.5990222999826,,400.03281329997117,t,0.4194755000062287,None,706337,001,2024-11-18_17h53.17.638,Delay dfiscounting,2024.2.4,59.609604766952685,2024-11-18 17h53.28.823402 +0530,
15,35,13,195,6,27,l,0.48453379998682067,None,27,6,195,1,400.0487106999499,,400.0351099999971,400.0487106999499,401.04834129998926,401.04834129998926,401.04834129998926,,401.5484547999804,l,0.48453379998682067,None,706337,001,2024-11-18_17h53.17.638,Delay dfiscounting,2024.2.4,59.609604766952685,2024-11-18 17h53.28.823402 +0530,
49,60,89,196,0,28,t,0.49524530000053346,None,28,0,196,4,401.5647793999524,,401.5507993999636,401.5647793999524,402.54771469999105,402.54771469999105,402.56431399995927,,403.0483352999436,t,0.49524530000053346,None,706337,001,2024-11-18_17h53.17.638,Delay dfiscounting,2024.2.4,59.609604766952685,2024-11-18 17h53.28.823402 +0530,
11,30,7,197,1,28,t,0.35082859999965876,None,28,1,197,0,403.06403639999917,,403.0506135999458,403.06403639999917,404.06371589994524,404.06371589994524,404.06371589994524,,404.4309846999822,t,0.35082859999965876,None,706337,001,2024-11-18_17h53.17.638,Delay dfiscounting,2024.2.4,59.609604766952685,2024-11-18 17h53.28.823402 +0530,
78,80,162,198,2,28,t,0.48084759997436777,None,28,2,198,6,404.4469721999485,,404.4334775999887,404.4469721999485,405.43006249994505,405.43006249994505,405.44649319996824,,405.9132810999872,t,0.48084759997436777,None,706337,001,2024-11-18_17h53.17.638,Delay dfiscounting,2024.2.4,59.609604766952685,2024-11-18 17h53.28.823402 +0530,
40,55,62,199,3,28,t,0.49308190000010654,None,28,3,199,3,405.929570999986,,405.9155583999818,405.929570999986,406.9124748999602,406.9124748999602,406.92917459999444,,407.412627099955,t,0.49308190000010654,None,706337,001,2024-11-18_17h53.17.638,Delay dfiscounting,2024.2.4,59.609604766952685,2024-11-18 17h53.28.823402 +0530,
15,35,13,200,4,28,l,0.38582760002464056,None,28,4,200,1,407.4288955999655,,407.4148334999918,407.4288955999655,408.4118294999935,408.4118294999935,408.4284127999563,,408.8124357999768,l,0.38582760002464056,None,706337,001,2024-11-18_17h53.17.638,Delay dfiscounting,2024.2.4,59.609604766952685,2024-11-18 17h53.28.823402 +0530,
67,75,119,201,5,28,t,0.40490799996769056,None,28,5,201,5,408.8284248999553,,408.8145084999851,408.8284248999553,409.81138529995224,409.81138529995224,409.828126999957,,410.22814009996364,t,0.40490799996769056,None,706337,001,2024-11-18_17h53.17.638,Delay dfiscounting,2024.2.4,59.609604766952685,2024-11-18 17h53.28.823402 +0530,
27,50,21,202,6,28,l,0.4617020000005141,None,28,6,202,2,410.24448019999545,,410.2303515999811,410.24448019999545,411.2275794999441,411.2275794999441,411.24398029997246,,411.6945422999561,l,0.4617020000005141,None,706337,001,2024-11-18_17h53.17.638,Delay dfiscounting,2024.2.4,59.609604766952685,2024-11-18 17h53.28.823402 +0530,
11,30,7,203,0,29,t,0.2671246000099927,None,29,0,203,0,411.71034229994984,,411.69699559995206,411.71034229994984,412.69326769997133,412.69326769997133,412.7099780999706,,412.97785909997765,t,0.2671246000099927,None,706337,001,2024-11-18_17h53.17.638,Delay dfiscounting,2024.2.4,59.609604766952685,2024-11-18 17h53.28.823402 +0530,
67,75,119,204,1,29,t,0.813083499961067,None,29,1,204,5,412.99360359995626,,412.9801193999592,412.99360359995626,413.99273089994676,413.99273089994676,413.99273089994676,,414.8099387999973,t,0.813083499961067,None,706337,001,2024-11-18_17h53.17.638,Delay dfiscounting,2024.2.4,59.609604766952685,2024-11-18 17h53.28.823402 +0530,
15,35,13,205,2,29,l,0.33891160000348464,None,29,2,205,1,414.8258144999854,,414.81226959999185,414.8258144999854,415.82524729997385,415.82524729997385,415.82524729997385,,416.1759027999942,l,0.33891160000348464,None,706337,001,2024-11-18_17h53.17.638,Delay dfiscounting,2024.2.4,59.609604766952685,2024-11-18 17h53.28.823402 +0530,
27,50,21,206,3,29,l,0.6562692999723367,None,29,3,206,2,416.1917991999653,,416.17825069994433,416.1917991999653,417.1913940999657,417.1913940999657,417.1913940999657,,417.8586867999984,l,0.6562692999723367,None,706337,001,2024-11-18_17h53.17.638,Delay dfiscounting,2024.2.4,59.609604766952685,2024-11-18 17h53.28.823402 +0530,
78,80,162,207,4,29,l,0.46718959999270737,None,29,4,207,6,417.8748529999866,,417.86141699994914,417.8748529999866,418.87392119999276,418.87392119999276,418.87392119999276,,419.35758029995486,l,0.46718959999270737,None,706337,001,2024-11-18_17h53.17.638,Delay dfiscounting,2024.2.4,59.609604766952685,2024-11-18 17h53.28.823402 +0530,
49,60,89,208,5,29,t,0.6690763999940827,None,29,5,208,4,419.3745027999976,,419.35996659996454,419.3745027999976,420.3567599999951,420.3567599999951,420.3901253999793,,421.0406021999661,t,0.6690763999940827,None,706337,001,2024-11-18_17h53.17.638,Delay dfiscounting,2024.2.4,59.609604766952685,2024-11-18 17h53.28.823402 +0530,
40,55,62,209,6,29,t,0.48075709998374805,None,29,6,209,3,421.05630050000036,,421.0430758999428,421.05630050000036,422.05594889994245,422.05594889994245,422.05594889994245,,422.539464499976,t,0.48075709998374805,None,706337,001,2024-11-18_17h53.17.638,Delay dfiscounting,2024.2.4,59.609604766952685,2024-11-18 17h53.28.823402 +0530,
27,50,21,210,0,30,l,0.3923122999840416,None,30,0,210,2,422.5557329999865,,422.5416742999805,422.5557329999865,423.53860309999436,423.53860309999436,423.555486999976,,423.9392383999657,l,0.3923122999840416,None,706337,001,2024-11-18_17h53.17.638,Delay dfiscounting,2024.2.4,59.609604766952685,2024-11-18 17h53.28.823402 +0530,
49,60,89,211,1,30,t,0.5638663999852724,None,30,1,211,4,423.95573929999955,,423.9421699999948,423.95573929999955,424.9546819999814,424.9546819999814,424.97131309995893,,425.52188399998704,t,0.5638663999852724,None,706337,001,2024-11-18_17h53.17.638,Delay dfiscounting,2024.2.4,59.609604766952685,2024-11-18 17h53.28.823402 +0530,
11,30,7,212,2,30,l,0.4782848000177182,None,30,2,212,0,425.5376842999831,,425.5242612999864,425.5376842999831,426.5205793999485,426.5205793999485,426.53718399995705,,427.0045315999887,l,0.4782848000177182,None,706337,001,2024-11-18_17h53.17.638,Delay dfiscounting,2024.2.4,59.609604766952685,2024-11-18 17h53.28.823402 +0530,
78,80,162,213,3,30,t,0.592037900001742,None,30,3,213,6,427.0205554999993,,427.0076194999856,427.0205554999993,428.0200268999906,428.0200268999906,428.0200268999906,,428.62041079998016,t,0.592037900001742,None,706337,001,2024-11-18_17h53.17.638,Delay dfiscounting,2024.2.4,59.609604766952685,2024-11-18 17h53.28.823402 +0530,
15,35,13,214,4,30,l,0.9490464000264183,None,30,4,214,1,428.63663039996754,,428.62262089998694,428.63663039996754,429.63607099995716,429.63607099995716,429.63607099995716,,430.5865240999847,l,0.9490464000264183,None,706337,001,2024-11-18_17h53.17.638,Delay dfiscounting,2024.2.4,59.609604766952685,2024-11-18 17h53.28.823402 +0530,
67,75,119,215,5,30,t,0.47347250004531816,None,30,5,215,5,430.60223889996996,,430.58883019996574,430.60223889996996,431.60212539997883,431.60212539997883,431.60212539997883,,432.0856711999513,t,0.47347250004531816,None,706337,001,2024-11-18_17h53.17.638,Delay dfiscounting,2024.2.4,59.609604766952685,2024-11-18 17h53.28.823402 +0530,
40,55,62,216,6,30,t,0.5537465999950655,None,30,6,216,3,432.1019800999784,,432.08788089995505,432.1019800999784,433.08452189998934,433.08452189998934,433.1012387999799,,433.65180259995395,t,0.5537465999950655,None,706337,001,2024-11-18_17h53.17.638,Delay dfiscounting,2024.2.4,59.609604766952685,2024-11-18 17h53.28.823402 +0530,
78,80,162,217,0,31,t,0.4265729999751784,None,31,0,217,6,433.667861599999,,433.65449049999006,433.667861599999,434.66733629995724,434.66733629995724,434.66733629995724,,435.10102269996423,t,0.4265729999751784,None,706337,001,2024-11-18_17h53.17.638,Delay dfiscounting,2024.2.4,59.609604766952685,2024-11-18 17h53.28.823402 +0530,
40,55,62,218,1,31,t,0.5012577000306919,None,31,1,218,3,435.11705149995396,,435.1032369999448,435.11705149995396,436.1164795999648,436.1164795999648,436.1164795999648,,436.63435639999807,t,0.5012577000306919,None,706337,001,2024-11-18_17h53.17.638,Delay dfiscounting,2024.2.4,59.609604766952685,2024-11-18 17h53.28.823402 +0530,
27,50,21,219,2,31,l,0.5068329000496306,None,31,2,219,2,436.64968129998306,,436.63681799999904,436.64968129998306,437.64921589998994,437.64921589998994,437.64921589998994,,438.16633369994815,l,0.5068329000496306,None,706337,001,2024-11-18_17h53.17.638,Delay dfiscounting,2024.2.4,59.609604766952685,2024-11-18 17h53.28.823402 +0530,
67,75,119,220,3,31,t,0.463120499975048,None,31,3,220,5,438.1823504999629,,438.16844699997455,438.1823504999629,439.1824147999869,439.1824147999869,439.1824147999869,,439.6490713999956,t,0.463120499975048,None,706337,001,2024-11-18_17h53.17.638,Delay dfiscounting,2024.2.4,59.609604766952685,2024-11-18 17h53.28.823402 +0530,
49,60,89,221,4,31,t,0.5586870000115596,None,31,4,221,4,439.6649366999627,,439.6516407999443,439.6649366999627,440.66460019996157,440.66460019996157,440.66460019996157,,441.23162459995365,t,0.5586870000115596,None,706337,001,2024-11-18_17h53.17.638,Delay dfiscounting,2024.2.4,59.609604766952685,2024-11-18 17h53.28.823402 +0530,
11,30,7,222,5,31,l,0.5988311999826692,None,31,5,222,0,441.24765139998635,,441.23391249997076,441.24765139998635,442.2472447999753,442.2472447999753,442.2472447999753,,442.8477514999686,l,0.5988311999826692,None,706337,001,2024-11-18_17h53.17.638,Delay dfiscounting,2024.2.4,59.609604766952685,2024-11-18 17h53.28.823402 +0530,
15,35,13,223,6,31,l,0.6481372000416741,None,31,6,223,1,442.8636165999924,,442.8501948999474,442.8636165999924,443.8631631999742,443.8631631999742,443.8631631999742,,444.51330149994465,l,0.6481372000416741,None,706337,001,2024-11-18_17h53.17.638,Delay dfiscounting,2024.2.4,59.609604766952685,2024-11-18 17h53.28.823402 +0530,
40,55,62,224,0,32,t,0.4649331999826245,None,32,0,224,3,444.52962349995505,,444.51543319999473,444.52962349995505,445.51261149998754,445.51261149998754,445.529645899951,,445.9795261999825,t,0.4649331999826245,None,706337,001,2024-11-18_17h53.17.638,Delay dfiscounting,2024.2.4,59.609604766952685,2024-11-18 17h53.28.823402 +0530,
15,35,13,225,1,32,l,0.5474531999789178,None,32,1,225,1,445.99569029995473,,445.9819671000005,445.99569029995473,446.9785290999571,446.9785290999571,446.9953883999842,,447.52877409994835,l,0.5474531999789178,None,706337,001,2024-11-18_17h53.17.638,Delay dfiscounting,2024.2.4,59.609604766952685,2024-11-18 17h53.28.823402 +0530,
78,80,162,226,2,32,t,0.38739640003768727,None,32,2,226,6,447.54543639998883,,447.5312414999935,447.54543639998883,448.5278787999996,448.5278787999996,448.5445363999461,,448.92805559997214,t,0.38739640003768727,None,706337,001,2024-11-18_17h53.17.638,Delay dfiscounting,2024.2.4,59.609604766952685,2024-11-18 17h53.28.823402 +0530,
49,60,89,227,3,32,t,0.49181949999183416,None,32,3,227,4,448.94427049998194,,448.93075199995656,448.94427049998194,449.92729519994464,449.92729519994464,449.9439807999879,,450.42795230000047,t,0.49181949999183416,None,706337,001,2024-11-18_17h53.17.638,Delay dfiscounting,2024.2.4,59.609604766952685,2024-11-18 17h53.28.823402 +0530,
11,30,7,228,4,32,l,0.4626397000392899,None,32,4,228,0,450.4438403999666,,450.43008709995775,450.4438403999666,451.44385289994534,451.44385289994534,451.44385289994534,,451.9105290999869,l,0.4626397000392899,None,706337,001,2024-11-18_17h53.17.638,Delay dfiscounting,2024.2.4,59.609604766952685,2024-11-18 17h53.28.823402 +0530,
67,75,119,229,5,32,t,0.4454583000042476,None,32,5,229,5,451.92644159996416,,451.91290279995883,451.92644159996416,452.925919399946,452.925919399946,452.925919399946,,453.3767370999558,t,0.4454583000042476,None,706337,001,2024-11-18_17h53.17.638,Delay dfiscounting,2024.2.4,59.609604766952685,2024-11-18 17h53.28.823402 +0530,
27,50,21,230,6,32,l,0.31182579998858273,None,32,6,230,2,453.39233449997846,,453.378940399969,453.39233449997846,454.3925394999678,454.3925394999678,454.3925394999678,,454.7092528999783,l,0.31182579998858273,None,706337,001,2024-11-18_17h53.17.638,Delay dfiscounting,2024.2.4,59.609604766952685,2024-11-18 17h53.28.823402 +0530,
49,60,89,231,0,33,t,0.44613509997725487,None,33,0,231,4,454.7251371999737,,454.71176119998563,454.7251371999737,455.72472489997745,455.72472489997745,455.72472489997745,,456.1752013999503,t,0.44613509997725487,None,706337,001,2024-11-18_17h53.17.638,Delay dfiscounting,2024.2.4,59.609604766952685,2024-11-18 17h53.28.823402 +0530,
78,80,162,232,1,33,t,0.4241858000168577,None,33,1,232,6,456.1912789999624,,456.17771789996186,456.1912789999624,457.1740894999821,457.1740894999821,457.19112539995695,,457.60795809997944,t,0.4241858000168577,None,706337,001,2024-11-18_17h53.17.638,Delay dfiscounting,2024.2.4,59.609604766952685,2024-11-18 17h53.28.823402 +0530,
15,35,13,233,2,33,t,0.3039503000327386,None,33,2,233,1,457.6239727999782,,457.61034839996137,457.6239727999782,458.6233024999965,458.6233024999965,458.6233024999965,,458.9406644999981,t,0.3039503000327386,None,706337,001,2024-11-18_17h53.17.638,Delay dfiscounting,2024.2.4,59.609604766952685,2024-11-18 17h53.28.823402 +0530,
11,30,7,234,3,33,l,0.3063724000239745,None,33,3,234,0,458.9571872999659,,458.94287829997484,458.9571872999659,459.94014069996774,459.94014069996774,459.95628359995317,,460.2568192999461,l,0.3063724000239745,None,706337,001,2024-11-18_17h53.17.638,Delay dfiscounting,2024.2.4,59.609604766952685,2024-11-18 17h53.28.823402 +0530,
67,75,119,235,4,33,t,0.6459371999953873,None,33,4,235,5,460.27267129998654,,460.259432699997,460.27267129998654,461.272431099962,461.272431099962,461.272431099962,,461.9227233999991,t,0.6459371999953873,None,706337,001,2024-11-18_17h53.17.638,Delay dfiscounting,2024.2.4,59.609604766952685,2024-11-18 17h53.28.823402 +0530,
27,50,21,236,5,33,l,0.8542673999909312,None,33,5,236,2,461.93871789996047,,461.9249501999584,461.93871789996047,462.9215318999486,462.9215318999486,462.93825869995635,,463.78898599999957,l,0.8542673999909312,None,706337,001,2024-11-18_17h53.17.638,Delay dfiscounting,2024.2.4,59.609604766952685,2024-11-18 17h53.28.823402 +0530,
40,55,62,237,6,33,l,36.20201210002415,None,33,6,237,3,463.8599651999539,,463.8554686999996,463.8599651999539,464.7932134999428,464.7932134999428,464.85969079995994,466.80823629995575,501.01093729998684,l,36.20201210002415,None,706337,001,2024-11-18_17h53.17.638,Delay dfiscounting,2024.2.4,59.609604766952685,2024-11-18 17h53.28.823402 +0530,
27,50,21,238,0,34,l,2.1007431999896653,None,34,0,238,2,501.02688329998637,,501.01321559998905,501.02688329998637,502.0268520999816,502.0268520999816,502.0268520999816,504.04271459998563,504.1428046999499,l,2.1007431999896653,None,706337,001,2024-11-18_17h53.17.638,Delay dfiscounting,2024.2.4,59.609604766952685,2024-11-18 17h53.28.823402 +0530,
49,60,89,239,1,34,t,0.8075170000083745,None,34,1,239,4,504.15877059998456,,504.1452900999575,504.15877059998456,505.14174049999565,505.14174049999565,505.1583259999752,,505.9587452999549,t,0.8075170000083745,None,706337,001,2024-11-18_17h53.17.638,Delay dfiscounting,2024.2.4,59.609604766952685,2024-11-18 17h53.28.823402 +0530,
40,55,62,240,2,34,t,0.4874716000049375,None,34,2,240,3,505.9747169999755,,505.9610699999612,505.9747169999755,506.9744300999446,506.9744300999446,506.9744300999446,,507.47460489999503,t,0.4874716000049375,None,706337,001,2024-11-18_17h53.17.638,Delay dfiscounting,2024.2.4,59.609604766952685,2024-11-18 17h53.28.823402 +0530,
67,75,119,241,3,34,t,0.42961309995735064,None,34,3,241,5,507.49070099997334,,507.47675459994934,507.49070099997334,508.47360489994753,508.47360489994753,508.4903062999947,,508.90730209997855,t,0.42961309995735064,None,706337,001,2024-11-18_17h53.17.638,Delay dfiscounting,2024.2.4,59.609604766952685,2024-11-18 17h53.28.823402 +0530,
78,80,162,242,4,34,t,0.3874105999711901,None,34,4,242,6,508.9235087999841,,508.9098534999648,508.9235087999841,509.90637899999274,509.90637899999274,509.9229812999838,,510.3068971999455,t,0.3874105999711901,None,706337,001,2024-11-18_17h53.17.638,Delay dfiscounting,2024.2.4,59.609604766952685,2024-11-18 17h53.28.823402 +0530,
11,30,7,243,5,34,l,0.40145909995771945,None,34,5,243,0,510.3228911999613,,510.3091719999793,510.3228911999613,511.3059026999981,511.3059026999981,511.32283259998076,,511.72306519997073,l,0.40145909995771945,None,706337,001,2024-11-18_17h53.17.638,Delay dfiscounting,2024.2.4,59.609604766952685,2024-11-18 17h53.28.823402 +0530,
15,35,13,244,6,34,l,0.6599483999889344,None,34,6,244,1,511.73941849998664,,511.72531139996136,511.73941849998664,512.7222146999557,512.7222146999557,512.7383929999778,,513.3887600999442,l,0.6599483999889344,None,706337,001,2024-11-18_17h53.17.638,Delay dfiscounting,2024.2.4,59.609604766952685,2024-11-18 17h53.28.823402 +0530,
27,50,21,245,0,35,l,0.37735979998251423,None,35,0,245,2,513.4048427999951,,513.3910723999725,513.4048427999951,514.404327199969,514.404327199969,514.404327199969,,514.788395599986,l,0.37735979998251423,None,706337,001,2024-11-18_17h53.17.638,Delay dfiscounting,2024.2.4,59.609604766952685,2024-11-18 17h53.28.823402 +0530,
67,75,119,246,1,35,t,0.36161790002370253,None,35,1,246,5,514.8043387999642,,514.7905399999581,514.8043387999642,515.804175199999,515.804175199999,515.804175199999,,516.1707280999981,t,0.36161790002370253,None,706337,001,2024-11-18_17h53.17.638,Delay dfiscounting,2024.2.4,59.609604766952685,2024-11-18 17h53.28.823402 +0530,
40,55,62,247,2,35,t,0.43895949999568984,None,35,2,247,3,516.1870819999604,,516.1730112999794,516.1870819999604,517.170086099999,517.170086099999,517.1864992999472,,517.6205807999941,t,0.43895949999568984,None,706337,001,2024-11-18_17h53.17.638,Delay dfiscounting,2024.2.4,59.609604766952685,2024-11-18 17h53.28.823402 +0530,
49,60,89,248,3,35,t,0.4131622000131756,None,35,3,248,4,517.6363613999565,,517.6229148999555,517.6363613999565,518.6192568999832,518.6192568999832,518.6359749999829,,519.0365222999826,t,0.4131622000131756,None,706337,001,2024-11-18_17h53.17.638,Delay dfiscounting,2024.2.4,59.609604766952685,2024-11-18 17h53.28.823402 +0530,
78,80,162,249,4,35,t,0.3801240000175312,None,35,4,249,6,519.0524616999901,,519.0391596999834,519.0524616999901,520.0520135999541,520.0520135999541,520.0520135999541,,520.4358774999855,t,0.3801240000175312,None,706337,001,2024-11-18_17h53.17.638,Delay dfiscounting,2024.2.4,59.609604766952685,2024-11-18 17h53.28.823402 +0530,
11,30,7,250,5,35,l,0.4199542999849655,None,35,5,250,0,520.4518182999454,,520.4380482999841,520.4518182999454,521.4513841999578,521.4513841999578,521.4513841999578,,521.8851679999498,l,0.4199542999849655,None,706337,001,2024-11-18_17h53.17.638,Delay dfiscounting,2024.2.4,59.609604766952685,2024-11-18 17h53.28.823402 +0530,
15,35,13,251,6,35,l,0.40166529995622113,None,35,6,251,1,521.9012793999864,,521.8874842999503,521.9012793999864,522.8848448999925,522.8848448999925,522.9007548999507,,523.3013323999476,l,0.40166529995622113,None,706337,001,2024-11-18_17h53.17.638,Delay dfiscounting,2024.2.4,59.609604766952685,2024-11-18 17h53.28.823402 +0530,
27,50,21,252,0,36,l,0.34847539995098487,None,36,0,252,2,523.317292199994,,523.3035213999683,523.317292199994,524.3000951999566,524.3000951999566,524.3168908999651,,524.6506037999643,l,0.34847539995098487,None,706337,001,2024-11-18_17h53.17.638,Delay dfiscounting,2024.2.4,59.609604766952685,2024-11-18 17h53.28.823402 +0530,
40,55,62,253,1,36,t,0.4461232000030577,None,36,1,253,3,524.6666908999905,,524.652919599961,524.6666908999905,525.6661245999858,525.6661245999858,525.6661245999858,,526.116878699977,t,0.4461232000030577,None,706337,001,2024-11-18_17h53.17.638,Delay dfiscounting,2024.2.4,59.609604766952685,2024-11-18 17h53.28.823402 +0530,
11,30,7,254,2,36,l,0.5501812999718823,None,36,2,254,0,526.1327275999938,,526.1190344999777,526.1327275999938,527.1322551999474,527.1322551999474,527.1322551999474,,527.6992723999429,l,0.5501812999718823,None,706337,001,2024-11-18_17h53.17.638,Delay dfiscounting,2024.2.4,59.609604766952685,2024-11-18 17h53.28.823402 +0530,
78,80,162,255,3,36,t,0.40073160000611097,None,36,3,255,6,527.7154062999762,,527.7018457999802,527.7154062999762,528.7148216999485,528.7148216999485,528.7148216999485,,529.1325408999692,t,0.40073160000611097,None,706337,001,2024-11-18_17h53.17.638,Delay dfiscounting,2024.2.4,59.609604766952685,2024-11-18 17h53.28.823402 +0530,
67,75,119,256,4,36,t,0.44735600001877174,None,36,4,256,5,529.1486788999755,,529.1346571999602,529.1486788999755,530.1474986999528,530.1474986999528,530.1642757999944,,530.5980502999737,t,0.44735600001877174,None,706337,001,2024-11-18_17h53.17.638,Delay dfiscounting,2024.2.4,59.609604766952685,2024-11-18 17h53.28.823402 +0530,
49,60,89,257,5,36,t,0.520757699967362,None,36,5,257,4,530.6142174999695,,530.6007401999668,530.6142174999695,531.6143377999542,531.6143377999542,531.6143377999542,,532.1473516999977,t,0.520757699967362,None,706337,001,2024-11-18_17h53.17.638,Delay dfiscounting,2024.2.4,59.609604766952685,2024-11-18 17h53.28.823402 +0530,
15,35,13,258,6,36,l,0.5082104000030085,None,36,6,258,1,532.1634071999579,,532.1495615999447,532.1634071999579,533.1463074999629,533.1463074999629,533.1629632999538,,533.6633838999551,l,0.5082104000030085,None,706337,001,2024-11-18_17h53.17.638,Delay dfiscounting,2024.2.4,59.609604766952685,2024-11-18 17h53.28.823402 +0530,
78,80,162,259,0,37,t,0.4618919999920763,None,37,0,259,6,533.6794238999719,,533.6659699999727,533.6794238999719,534.6789578999742,534.6789578999742,534.6789578999742,,535.1458851999487,t,0.4618919999920763,None,706337,001,2024-11-18_17h53.17.638,Delay dfiscounting,2024.2.4,59.609604766952685,2024-11-18 17h53.28.823402 +0530,
49,60,89,260,1,37,t,0.5352765000425279,None,37,1,260,4,535.1620840999531,,535.148262499948,535.1620840999531,536.1450182999833,536.1450182999833,536.161656399956,,536.6955157999764,t,0.5352765000425279,None,706337,001,2024-11-18_17h53.17.638,Delay dfiscounting,2024.2.4,59.609604766952685,2024-11-18 17h53.28.823402 +0530,
15,35,13,261,2,37,l,0.48829000000841916,None,37,2,261,1,536.7114145999658,,536.6979269000003,536.7114145999658,537.710978499963,537.710978499963,537.710978499963,,538.211528899963,l,0.48829000000841916,None,706337,001,2024-11-18_17h53.17.638,Delay dfiscounting,2024.2.4,59.609604766952685,2024-11-18 17h53.28.823402 +0530,
40,55,62,262,3,37,t,0.4569607999874279,None,37,3,262,3,538.2275031999452,,538.213778299978,538.2275031999452,539.2270553999697,539.2270553999697,539.2270553999697,,539.694235599949,t,0.4569607999874279,None,706337,001,2024-11-18_17h53.17.638,Delay dfiscounting,2024.2.4,59.609604766952685,2024-11-18 17h53.28.823402 +0530,
67,75,119,263,4,37,t,1.062465599970892,None,37,4,263,5,539.7102270999458,,539.6963715999736,539.7102270999458,540.7098049999913,540.7098049999913,540.7098049999913,,541.7768972999766,t,1.062465599970892,None,706337,001,2024-11-18_17h53.17.638,Delay dfiscounting,2024.2.4,59.609604766952685,2024-11-18 17h53.28.823402 +0530,
27,50,21,264,5,37,l,0.7104856999940239,None,37,5,264,2,541.7926013999968,,541.779102499946,541.7926013999968,542.7921293999534,542.7921293999534,542.7921293999534,,543.5092458999716,l,0.7104856999940239,None,706337,001,2024-11-18_17h53.17.638,Delay dfiscounting,2024.2.4,59.609604766952685,2024-11-18 17h53.28.823402 +0530,
11,30,7,265,6,37,t,0.7615422999951988,None,37,6,265,0,543.5258096999605,,543.5115335999872,543.5258096999605,544.5081347999512,544.5081347999512,544.5415629999479,,545.2752700999845,t,0.7615422999951988,None,706337,001,2024-11-18_17h53.17.638,Delay dfiscounting,2024.2.4,59.609604766952685,2024-11-18 17h53.28.823402 +0530,
67,75,119,266,0,38,t,0.8019277999992482,None,38,0,266,5,545.2911200999515,,545.2773726999876,545.2911200999515,546.2911416999996,546.2911416999996,546.2911416999996,,547.1081508999923,t,0.8019277999992482,None,706337,001,2024-11-18_17h53.17.638,Delay dfiscounting,2024.2.4,59.609604766952685,2024-11-18 17h53.28.823402 +0530,
15,35,13,267,1,38,l,0.6141744999913499,None,38,1,267,1,547.1236925999983,,547.1103379999986,547.1236925999983,548.1232824999606,548.1232824999606,548.1232824999606,,548.7400257999543,l,0.6141744999913499,None,706337,001,2024-11-18_17h53.17.638,Delay dfiscounting,2024.2.4,59.609604766952685,2024-11-18 17h53.28.823402 +0530,
78,80,162,268,2,38,t,0.5093995000352152,None,38,2,268,6,548.7564198999899,,548.7425754999858,548.7564198999899,549.7390793999657,549.7390793999657,549.7557820999646,,550.2563830999425,t,0.5093995000352152,None,706337,001,2024-11-18_17h53.17.638,Delay dfiscounting,2024.2.4,59.609604766952685,2024-11-18 17h53.28.823402 +0530,
49,60,89,269,3,38,t,0.5807770999963395,None,38,3,269,4,550.2723034999799,,550.2589051999967,550.2723034999799,551.2718212999753,551.2718212999753,551.2718212999753,,551.8554746999871,t,0.5807770999963395,None,706337,001,2024-11-18_17h53.17.638,Delay dfiscounting,2024.2.4,59.609604766952685,2024-11-18 17h53.28.823402 +0530,
11,30,7,270,4,38,l,0.6458599999896251,None,38,4,270,0,551.8716839999543,,551.8577583999722,551.8716839999543,552.8544981999439,552.8544981999439,552.8711440999759,,553.504719199962,l,0.6458599999896251,None,706337,001,2024-11-18_17h53.17.638,Delay dfiscounting,2024.2.4,59.609604766952685,2024-11-18 17h53.28.823402 +0530,
40,55,62,271,5,38,t,0.5833802000270225,None,38,5,271,3,553.5208998999442,,553.5069674999686,553.5208998999442,554.5038385999505,554.5038385999505,554.520498399972,,555.1042120999773,t,0.5833802000270225,None,706337,001,2024-11-18_17h53.17.638,Delay dfiscounting,2024.2.4,59.609604766952685,2024-11-18 17h53.28.823402 +0530,
27,50,21,272,6,38,l,0.7973328999942169,None,38,6,272,2,555.1203286999953,,555.1064312999952,555.1203286999953,556.119686399994,556.119686399994,556.119686399994,,556.9198732999503,l,0.7973328999942169,None,706337,001,2024-11-18_17h53.17.638,Delay dfiscounting,2024.2.4,59.609604766952685,2024-11-18 17h53.28.823402 +0530,
40,55,62,273,0,39,t,0.48595509998267516,None,39,0,273,3,556.9360693999915,,556.9221066999598,556.9360693999915,557.9189886999666,557.9189886999666,557.9356665999512,,558.4197650999995,t,0.48595509998267516,None,706337,001,2024-11-18_17h53.17.638,Delay dfiscounting,2024.2.4,59.609604766952685,2024-11-18 17h53.28.823402 +0530,
67,75,119,274,1,39,t,0.44125450000865385,None,39,1,274,5,558.4353674999438,,558.4218453999492,558.4353674999438,559.4357475999859,559.4357475999859,559.4357475999859,,559.8854895999539,t,0.44125450000865385,None,706337,001,2024-11-18_17h53.17.638,Delay dfiscounting,2024.2.4,59.609604766952685,2024-11-18 17h53.28.823402 +0530,
78,80,162,275,2,39,t,0.41344629996456206,None,39,2,275,6,559.9015699999873,,559.8880670999642,559.9015699999873,560.9009582999861,560.9009582999861,560.9009582999861,,561.3182361999643,t,0.41344629996456206,None,706337,001,2024-11-18_17h53.17.638,Delay dfiscounting,2024.2.4,59.609604766952685,2024-11-18 17h53.28.823402 +0530,
11,30,7,276,3,39,l,0.4798517000162974,None,39,3,276,0,561.3344116999651,,561.320535399951,561.3344116999651,562.3171491999528,562.3171491999528,562.3336907999474,,562.8009572999435,l,0.4798517000162974,None,706337,001,2024-11-18_17h53.17.638,Delay dfiscounting,2024.2.4,59.609604766952685,2024-11-18 17h53.28.823402 +0530,
15,35,13,277,4,39,l,0.4266617000102997,None,39,4,277,1,562.8168685999699,,562.803265399998,562.8168685999699,563.7999924999895,563.7999924999895,563.8166950999876,,564.2336787999957,l,0.4266617000102997,None,706337,001,2024-11-18_17h53.17.638,Delay dfiscounting,2024.2.4,59.609604766952685,2024-11-18 17h53.28.823402 +0530,
27,50,21,278,5,39,l,0.41010640002787113,None,39,5,278,2,564.2497025999473,,564.2359678999637,564.2497025999473,565.2490639999742,565.2490639999742,565.2490639999742,,565.6664433999686,l,0.41010640002787113,None,706337,001,2024-11-18_17h53.17.638,Delay dfiscounting,2024.2.4,59.609604766952685,2024-11-18 17h53.28.823402 +0530,
49,60,89,279,6,39,t,0.3523720999946818,None,39,6,279,4,565.6824930000002,,565.668985599943,565.6824930000002,566.6824994999915,566.6824994999915,566.6824994999915,,567.0492943999707,t,0.3523720999946818,None,706337,001,2024-11-18_17h53.17.638,Delay dfiscounting,2024.2.4,59.609604766952685,2024-11-18 17h53.28.823402 +0530,
40,55,62,280,0,40,t,0.4100247999886051,None,40,0,280,3,567.0650622999528,,567.0514619999449,567.0650622999528,568.0645774999866,568.0645774999866,568.0645774999866,,568.4818402999663,t,0.4100247999886051,None,706337,001,2024-11-18_17h53.17.638,Delay dfiscounting,2024.2.4,59.609604766952685,2024-11-18 17h53.28.823402 +0530,
11,30,7,281,1,40,l,0.46669670002302155,None,40,1,281,0,568.4978252999717,,568.4840966999764,568.4978252999717,569.4974413999589,569.4974413999589,569.4974413999589,,569.9810956000001,l,0.46669670002302155,None,706337,001,2024-11-18_17h53.17.638,Delay dfiscounting,2024.2.4,59.609604766952685,2024-11-18 17h53.28.823402 +0530,
67,75,119,282,2,40,t,0.5132231999887154,None,40,2,282,5,569.9971799999475,,569.9832491999841,569.9971799999475,570.9966131999972,570.9966131999972,570.9966131999972,,571.5140193999978,t,0.5132231999887154,None,706337,001,2024-11-18_17h53.17.638,Delay dfiscounting,2024.2.4,59.609604766952685,2024-11-18 17h53.28.823402 +0530,
49,60,89,283,3,40,t,0.5271247000200674,None,40,3,283,4,571.5298339999863,,571.5164817999466,571.5298339999863,572.5126721999841,572.5126721999841,572.5292988999863,,573.0463738999679,t,0.5271247000200674,None,706337,001,2024-11-18_17h53.17.638,Delay dfiscounting,2024.2.4,59.609604766952685,2024-11-18 17h53.28.823402 +0530,
27,50,21,284,4,40,l,0.5189609999652021,None,40,4,284,2,573.0629589999444,,573.0486270999536,573.0629589999444,574.0619420000003,574.0619420000003,574.0619420000003,,574.5959591999999,l,0.5189609999652021,None,706337,001,2024-11-18_17h53.17.638,Delay dfiscounting,2024.2.4,59.609604766952685,2024-11-18 17h53.28.823402 +0530,
78,80,162,285,5,40,t,0.5059459000476636,None,40,5,285,6,574.6118246999686,,574.5986162999761,574.6118246999686,575.6112912999815,575.6112912999815,575.6112912999815,,576.1286737999762,t,0.5059459000476636,None,706337,001,2024-11-18_17h53.17.638,Delay dfiscounting,2024.2.4,59.609604766952685,2024-11-18 17h53.28.823402 +0530,
15,35,13,286,6,40,l,0.5536912999814376,None,40,6,286,1,576.1445848999429,,576.1308876999537,576.1445848999429,577.1277002999559,577.1277002999559,577.1440611999715,,577.6944963999558,l,0.5536912999814376,None,706337,001,2024-11-18_17h53.17.638,Delay dfiscounting,2024.2.4,59.609604766952685,2024-11-18 17h53.28.823402 +0530,
78,80,162,287,0,41,t,0.43780179996974766,None,41,0,287,6,577.7103868999984,,577.6971011999995,577.7103868999984,578.7101091999793,578.7101091999793,578.7101091999793,,579.1606389999506,t,0.43780179996974766,None,706337,001,2024-11-18_17h53.17.638,Delay dfiscounting,2024.2.4,59.609604766952685,2024-11-18 17h53.28.823402 +0530,
15,35,13,288,1,41,l,0.5136759000015445,None,41,1,288,1,579.176438399998,,579.1628585999715,579.176438399998,580.1592899999814,580.1592899999814,580.1759806999471,,580.6762460999889,l,0.5136759000015445,None,706337,001,2024-11-18_17h53.17.638,Delay dfiscounting,2024.2.4,59.609604766952685,2024-11-18 17h53.28.823402 +0530,
11,30,7,289,2,41,l,0.500459700007923,None,41,2,289,0,580.6924920999445,,580.678538099979,580.6924920999445,581.6757937999791,581.6757937999791,581.6920093999943,,582.1925133999903,l,0.500459700007923,None,706337,001,2024-11-18_17h53.17.638,Delay dfiscounting,2024.2.4,59.609604766952685,2024-11-18 17h53.28.823402 +0530,
67,75,119,290,3,41,t,0.38674529996933416,None,41,3,290,5,582.2085872999742,,582.1947157999966,582.2085872999742,583.1922603999847,583.1922603999847,583.208398799994,,583.591965199972,t,0.38674529996933416,None,706337,001,2024-11-18_17h53.17.638,Delay dfiscounting,2024.2.4,59.609604766952685,2024-11-18 17h53.28.823402 +0530,
40,55,62,291,4,41,l,0.28383620001841336,None,41,4,291,3,583.6079138999921,,583.594260599988,583.6079138999921,584.607342299947,584.607342299947,584.607342299947,,584.8923160999548,l,0.28383620001841336,None,706337,001,2024-11-18_17h53.17.638,Delay dfiscounting,2024.2.4,59.609604766952685,2024-11-18 17h53.28.823402 +0530,
27,50,21,292,5,41,t,0.46528599999146536,None,41,5,292,2,584.9074069999624,,584.8946255999617,584.9074069999624,585.9072389999637,585.9072389999637,585.9072389999637,,586.3738952999702,t,0.46528599999146536,None,706337,001,2024-11-18_17h53.17.638,Delay dfiscounting,2024.2.4,59.609604766952685,2024-11-18 17h53.28.823402 +0530,
49,60,89,293,6,41,t,0.4624680000124499,None,41,6,293,4,586.3901066999533,,586.3766434999998,586.3901066999533,587.3733327999944,587.3733327999944,587.3895265999599,,587.8401042999467,t,0.4624680000124499,None,706337,001,2024-11-18_17h53.17.638,Delay dfiscounting,2024.2.4,59.609604766952685,2024-11-18 17h53.28.823402 +0530,
40,55,62,294,0,42,t,0.3787861000164412,None,42,0,294,3,587.8560681999661,,587.8423264999874,587.8560681999661,588.839013699966,588.839013699966,588.8555486999685,,589.2228188999579,t,0.3787861000164412,None,706337,001,2024-11-18_17h53.17.638,Delay dfiscounting,2024.2.4,59.609604766952685,2024-11-18 17h53.28.823402 +0530,
11,30,7,295,1,42,l,0.31857709999894723,None,42,1,295,0,589.2388896999764,,589.2250282999594,589.2388896999764,590.2217125999741,590.2217125999741,590.2383057999541,,590.5555133999442,l,0.31857709999894723,None,706337,001,2024-11-18_17h53.17.638,Delay dfiscounting,2024.2.4,59.609604766952685,2024-11-18 17h53.28.823402 +0530,
15,35,13,296,2,42,l,1.0542143000056967,None,42,2,296,1,590.57171009999,,590.5578599999426,590.57171009999,591.5710952999652,591.5710952999652,591.5710952999652,,592.6383437999757,l,1.0542143000056967,None,706337,001,2024-11-18_17h53.17.638,Delay dfiscounting,2024.2.4,59.609604766952685,2024-11-18 17h53.28.823402 +0530,
49,60,89,297,3,42,t,0.6635624000336975,None,42,3,297,4,592.654107099981,,592.6408094999497,592.654107099981,593.6535880999872,593.6535880999872,593.6535880999872,,594.3203300999594,t,0.6635624000336975,None,706337,001,2024-11-18_17h53.17.638,Delay dfiscounting,2024.2.4,59.609604766952685,2024-11-18 17h53.28.823402 +0530,
27,50,21,298,4,42,l,1.3271319000050426,None,42,4,298,2,594.3365538999788,,594.3225165999611,594.3365538999788,595.3194343999494,595.3194343999494,595.3361085999641,,596.6530760999885,l,1.3271319000050426,None,706337,001,2024-11-18_17h53.17.638,Delay dfiscounting,2024.2.4,59.609604766952685,2024-11-18 17h53.28.823402 +0530,
78,80,162,299,5,42,l,0.4924161999952048,None,42,5,299,6,596.6690160999424,,596.6557118999772,596.6690160999424,597.6520074999426,597.6520074999426,597.6689461999922,,598.152462899976,l,0.4924161999952048,None,706337,001,2024-11-18_17h53.17.638,Delay dfiscounting,2024.2.4,59.609604766952685,2024-11-18 17h53.28.823402 +0530,
67,75,119,300,6,42,t,0.6209713999996893,None,42,6,300,5,598.168431899976,,598.1547224999522,598.168431899976,599.1678545999457,599.1678545999457,599.1678545999457,,599.801571399963,t,0.6209713999996893,None,706337,001,2024-11-18_17h53.17.638,Delay dfiscounting,2024.2.4,59.609604766952685,2024-11-18 17h53.28.823402 +0530,
78,80,162,301,0,43,t,0.37910640001064166,None,43,0,301,6,599.8175112999743,,599.8041928999592,599.8175112999743,600.8008805999998,600.8008805999998,600.817433499964,,601.1844980999595,t,0.37910640001064166,None,706337,001,2024-11-18_17h53.17.638,Delay dfiscounting,2024.2.4,59.609604766952685,2024-11-18 17h53.28.823402 +0530,
67,75,119,302,1,43,t,0.3662033000146039,None,43,1,302,5,601.2002769999672,,601.1865774999605,601.2002769999672,602.2005694999825,602.2005694999825,602.2005694999825,,602.5680297999643,t,0.3662033000146039,None,706337,001,2024-11-18_17h53.17.638,Delay dfiscounting,2024.2.4,59.609604766952685,2024-11-18 17h53.28.823402 +0530,
